"","subject","task","display","screen","rt","response","T3.img","trial"
"1","1",3,"T3Trial","Rating Screen","3275.5",3,"13.png",1
"2","1",3,"T3Trial","Rating Screen","2951.4",0,"37.png",2
"3","1",3,"T3Trial","Rating Screen","3070.2",1,"31.png",3
"4","1",3,"T3Trial","Rating Screen","2381.7",2,"33.png",4
"5","1",3,"T3Trial","Rating Screen","2323.1",3,"14.png",5
"6","1",3,"T3Trial","Rating Screen","1526.1",3,"17.png",6
"7","1",3,"T3Trial","Rating Screen","2169.9",2,"34.png",7
"8","1",3,"T3Trial","Rating Screen","3018.5",1,"62.png",8
"9","1",3,"T3Trial","Rating Screen","1604",3,"61.png",9
"10","1",3,"T3Trial","Rating Screen","1702.7",3,"63.png",10
"11","1",3,"T3Trial","Rating Screen","1407.9",2,"16.png",11
"12","1",3,"T3Trial","Rating Screen","1351.9",3,"38.png",12
"13","1",3,"T3Trial","Rating Screen","1662.4",1,"69.png",13
"14","1",3,"T3Trial","Rating Screen","2131",0,"23.png",14
"15","1",3,"T3Trial","Rating Screen","1381",3,"68.png",15
"16","1",3,"T3Trial","Rating Screen","1409.3",3,"1.png",16
"17","1",3,"T3Trial","Rating Screen","2863.2",3,"35.png",17
"18","1",3,"T3Trial","Rating Screen","1089",3,"59.png",18
"19","1",3,"T3Trial","Rating Screen","2257.2",-1,"10.png",19
"20","1",3,"T3Trial","Rating Screen","1324.5",3,"12.png",20
"21","1",3,"T3Trial","Rating Screen","2312.2",2,"60.png",21
"22","1",3,"T3Trial","Rating Screen","1477.3",2,"51.png",22
"23","1",3,"T3Trial","Rating Screen","1627.7",2,"57.png",23
"24","1",3,"T3Trial","Rating Screen","2274.5",1,"26.png",24
"25","1",3,"T3Trial","Rating Screen","2014.9",3,"22.png",25
"26","1",3,"T3Trial","Rating Screen","2273.5",3,"71.png",26
"27","1",3,"T3Trial","Rating Screen","2367.7",1,"52.png",27
"28","1",3,"T3Trial","Rating Screen","2648.2",2,"2.png",28
"29","1",3,"T3Trial","Rating Screen","1163.5",1,"29.png",29
"30","1",3,"T3Trial","Rating Screen","2698.9",1,"41.png",30
"31","1",3,"T3Trial","Rating Screen","1728.3",3,"56.png",31
"32","1",3,"T3Trial","Rating Screen","2742.4",1,"72.png",32
"33","1",3,"T3Trial","Rating Screen","1519.9",2,"64.png",33
"34","1",3,"T3Trial","Rating Screen","2028",2,"46.png",34
"35","1",3,"T3Trial","Rating Screen","1417.8",3,"9.png",35
"36","1",3,"T3Trial","Rating Screen","2079.3",2,"8.png",36
"37","1",3,"T3Trial","Rating Screen","1708.8",1,"44.png",37
"38","1",3,"T3Trial","Rating Screen","1854",1,"25.png",38
"39","1",3,"T3Trial","Rating Screen","1536.5",1,"18.png",39
"40","1",3,"T3Trial","Rating Screen","2694.3",2,"36.png",40
"41","1",3,"T3Trial","Rating Screen","1921.8",1,"53.png",41
"42","1",3,"T3Trial","Rating Screen","2137.9",3,"20.png",42
"43","1",3,"T3Trial","Rating Screen","1609.4",2,"7.png",43
"44","1",3,"T3Trial","Rating Screen","1916.3",2,"19.png",44
"45","1",3,"T3Trial","Rating Screen","1287.3",2,"49.png",45
"46","1",3,"T3Trial","Rating Screen","2628.6",2,"24.png",46
"47","1",3,"T3Trial","Rating Screen","1758.6",3,"67.png",47
"48","1",3,"T3Trial","Rating Screen","1791.7",1,"40.png",48
"49","1",3,"T3Trial","Rating Screen","1969.1",2,"4.png",49
"50","1",3,"T3Trial","Rating Screen","2899.4",1,"39.png",50
"51","1",3,"T3Trial","Rating Screen","1721.2",2,"70.png",51
"52","1",3,"T3Trial","Rating Screen","1402.8",2,"65.png",52
"53","1",3,"T3Trial","Rating Screen","3093.9",3,"43.png",53
"54","1",3,"T3Trial","Rating Screen","1293.2",2,"21.png",54
"55","1",3,"T3Trial","Rating Screen","1568.9",2,"58.png",55
"56","1",3,"T3Trial","Rating Screen","1721.3",1,"54.png",56
"57","1",3,"T3Trial","Rating Screen","2469.3",0,"32.png",57
"58","1",3,"T3Trial","Rating Screen","1398",1,"30.png",58
"59","1",3,"T3Trial","Rating Screen","2673",2,"6.png",59
"60","1",3,"T3Trial","Rating Screen","1431.1",3,"48.png",60
"61","1",3,"T3Trial","Rating Screen","1552.8",3,"42.png",61
"62","1",3,"T3Trial","Rating Screen","1900.2",1,"5.png",62
"63","1",3,"T3Trial","Rating Screen","1960.1",3,"27.png",63
"64","1",3,"T3Trial","Rating Screen","1863.6",2,"66.png",64
"65","1",3,"T3Trial","Rating Screen","2270.3",1,"45.png",65
"66","1",3,"T3Trial","Rating Screen","2274.5",1,"47.png",66
"67","1",3,"T3Trial","Rating Screen","2281",3,"55.png",67
"68","1",3,"T3Trial","Rating Screen","2303.2",2,"3.png",68
"69","1",3,"T3Trial","Rating Screen","1555",3,"28.png",69
"70","1",3,"T3Trial","Rating Screen","1872.5",2,"50.png",70
"71","1",3,"T3Trial","Rating Screen","1438.8",3,"15.png",71
"72","1",3,"T3Trial","Rating Screen","1264.5",3,"11.png",72
"73","2",3,"T3Trial","Rating Screen","4317.5",1,"47.png",1
"74","2",3,"T3Trial","Rating Screen","3841.3",3,"13.png",2
"75","2",3,"T3Trial","Rating Screen","1526.5",1,"32.png",3
"76","2",3,"T3Trial","Rating Screen","3387.3",3,"62.png",4
"77","2",3,"T3Trial","Rating Screen","1443.9",2,"56.png",5
"78","2",3,"T3Trial","Rating Screen","2000.8",2,"44.png",6
"79","2",3,"T3Trial","Rating Screen","4346",2,"42.png",7
"80","2",3,"T3Trial","Rating Screen","2254.7",3,"21.png",8
"81","2",3,"T3Trial","Rating Screen","1623.3",1,"51.png",9
"82","2",3,"T3Trial","Rating Screen","2255.6",2,"61.png",10
"83","2",3,"T3Trial","Rating Screen","3336.2",1,"35.png",11
"84","2",3,"T3Trial","Rating Screen","2745.3",3,"50.png",12
"85","2",3,"T3Trial","Rating Screen","1947.8",2,"48.png",13
"86","2",3,"T3Trial","Rating Screen","1954.6",0,"57.png",14
"87","2",3,"T3Trial","Rating Screen","1899.7",2,"72.png",15
"88","2",3,"T3Trial","Rating Screen","1401.1",1,"52.png",16
"89","2",3,"T3Trial","Rating Screen","3137.2",1,"24.png",17
"90","2",3,"T3Trial","Rating Screen","3275",2,"7.png",18
"91","2",3,"T3Trial","Rating Screen","3577.3",3,"2.png",19
"92","2",3,"T3Trial","Rating Screen","1413.1",2,"38.png",20
"93","2",3,"T3Trial","Rating Screen","3664.4",1,"27.png",21
"94","2",3,"T3Trial","Rating Screen","2037.2",1,"18.png",22
"95","2",3,"T3Trial","Rating Screen","1523.6",2,"15.png",23
"96","2",3,"T3Trial","Rating Screen","1841.8",2,"30.png",24
"97","2",3,"T3Trial","Rating Screen","3074.1",2,"55.png",25
"98","2",3,"T3Trial","Rating Screen","1906.9",2,"68.png",26
"99","2",3,"T3Trial","Rating Screen","2752.5",1,"6.png",27
"100","2",3,"T3Trial","Rating Screen","3292.2",2,"63.png",28
"101","2",3,"T3Trial","Rating Screen","2663.5",3,"1.png",29
"102","2",3,"T3Trial","Rating Screen","2945.8",2,"25.png",30
"103","2",3,"T3Trial","Rating Screen","3047.6",2,"67.png",31
"104","2",3,"T3Trial","Rating Screen","2081.3",3,"36.png",32
"105","2",3,"T3Trial","Rating Screen","2373.2",1,"40.png",33
"106","2",3,"T3Trial","Rating Screen","1772",1,"9.png",34
"107","2",3,"T3Trial","Rating Screen","1973.6",2,"14.png",35
"108","2",3,"T3Trial","Rating Screen","3324.6",3,"45.png",36
"109","2",3,"T3Trial","Rating Screen","1974.5",2,"28.png",37
"110","2",3,"T3Trial","Rating Screen","7151.9",1,"8.png",38
"111","2",3,"T3Trial","Rating Screen","8681.1",2,"41.png",39
"112","2",3,"T3Trial","Rating Screen","2187.7",1,"5.png",40
"113","2",3,"T3Trial","Rating Screen","2993.4",2,"65.png",41
"114","2",3,"T3Trial","Rating Screen","1838.9",2,"37.png",42
"115","2",3,"T3Trial","Rating Screen","2105.7",0,"70.png",43
"116","2",3,"T3Trial","Rating Screen","1965.8",2,"33.png",44
"117","2",3,"T3Trial","Rating Screen","3034",1,"16.png",45
"118","2",3,"T3Trial","Rating Screen","3413",1,"66.png",46
"119","2",3,"T3Trial","Rating Screen","2441.9",1,"43.png",47
"120","2",3,"T3Trial","Rating Screen","1324.5",1,"20.png",48
"121","2",3,"T3Trial","Rating Screen","1644.3",1,"59.png",49
"122","2",3,"T3Trial","Rating Screen","1778.3",2,"26.png",50
"123","2",3,"T3Trial","Rating Screen","1539.3",1,"69.png",51
"124","2",3,"T3Trial","Rating Screen","7650.7",1,"53.png",52
"125","2",3,"T3Trial","Rating Screen","2463.4",3,"39.png",53
"126","2",3,"T3Trial","Rating Screen","5743.1",1,"31.png",54
"127","2",3,"T3Trial","Rating Screen","3280.9",2,"12.png",55
"128","2",3,"T3Trial","Rating Screen","3135.2",1,"23.png",56
"129","2",3,"T3Trial","Rating Screen","1588.7",1,"64.png",57
"130","2",3,"T3Trial","Rating Screen","1783.4",2,"58.png",58
"131","2",3,"T3Trial","Rating Screen","2553.8",2,"29.png",59
"132","2",3,"T3Trial","Rating Screen","2295",2,"49.png",60
"133","2",3,"T3Trial","Rating Screen","1985",2,"60.png",61
"134","2",3,"T3Trial","Rating Screen","1603.4",2,"22.png",62
"135","2",3,"T3Trial","Rating Screen","2918",2,"3.png",63
"136","2",3,"T3Trial","Rating Screen","1936.1",1,"34.png",64
"137","2",3,"T3Trial","Rating Screen","2050.5",2,"4.png",65
"138","2",3,"T3Trial","Rating Screen","1479.6",1,"10.png",66
"139","2",3,"T3Trial","Rating Screen","2799.2",1,"71.png",67
"140","2",3,"T3Trial","Rating Screen","1316.6",1,"17.png",68
"141","2",3,"T3Trial","Rating Screen","2387.7",2,"54.png",69
"142","2",3,"T3Trial","Rating Screen","1489.6",1,"19.png",70
"143","2",3,"T3Trial","Rating Screen","2714.7",3,"46.png",71
"144","2",3,"T3Trial","Rating Screen","2129.8",3,"11.png",72
"145","3",3,"T3Trial","Rating Screen","2784.1",2,"21.png",1
"146","3",3,"T3Trial","Rating Screen","2016.5",0,"51.png",2
"147","3",3,"T3Trial","Rating Screen","2276.9",3,"16.png",3
"148","3",3,"T3Trial","Rating Screen","1112",3,"65.png",4
"149","3",3,"T3Trial","Rating Screen","1495.2",0,"13.png",5
"150","3",3,"T3Trial","Rating Screen","1907.4",0,"42.png",6
"151","3",3,"T3Trial","Rating Screen","1664.6",3,"24.png",7
"152","3",3,"T3Trial","Rating Screen","1337.3",1,"19.png",8
"153","3",3,"T3Trial","Rating Screen","1100.2",1,"5.png",9
"154","3",3,"T3Trial","Rating Screen","1847.8",3,"60.png",10
"155","3",3,"T3Trial","Rating Screen","1052.3",0,"70.png",11
"156","3",3,"T3Trial","Rating Screen","1185.2",0,"58.png",12
"157","3",3,"T3Trial","Rating Screen","1325.7",3,"15.png",13
"158","3",3,"T3Trial","Rating Screen","731.1",3,"38.png",14
"159","3",3,"T3Trial","Rating Screen","973.1",0,"35.png",15
"160","3",3,"T3Trial","Rating Screen","563.3",1,"64.png",16
"161","3",3,"T3Trial","Rating Screen","574.9",1,"1.png",17
"162","3",3,"T3Trial","Rating Screen","847.5",1,"66.png",18
"163","3",3,"T3Trial","Rating Screen","741.8",1,"28.png",19
"164","3",3,"T3Trial","Rating Screen","1065.1",1,"8.png",20
"165","3",3,"T3Trial","Rating Screen","1800.3",3,"49.png",21
"166","3",3,"T3Trial","Rating Screen","1778.3",1,"23.png",22
"167","3",3,"T3Trial","Rating Screen","750.3",2,"4.png",23
"168","3",3,"T3Trial","Rating Screen","1143",1,"44.png",24
"169","3",3,"T3Trial","Rating Screen","685",1,"40.png",25
"170","3",3,"T3Trial","Rating Screen","1547.5",1,"52.png",26
"171","3",3,"T3Trial","Rating Screen","1518",3,"3.png",27
"172","3",3,"T3Trial","Rating Screen","1197.2",3,"56.png",28
"173","3",3,"T3Trial","Rating Screen","860.4",3,"25.png",29
"174","3",3,"T3Trial","Rating Screen","676.7",3,"33.png",30
"175","3",3,"T3Trial","Rating Screen","1388",0,"47.png",31
"176","3",3,"T3Trial","Rating Screen","831.3",0,"30.png",32
"177","3",3,"T3Trial","Rating Screen","1229.6",1,"57.png",33
"178","3",3,"T3Trial","Rating Screen","608",1,"9.png",34
"179","3",3,"T3Trial","Rating Screen","800.7",1,"53.png",35
"180","3",3,"T3Trial","Rating Screen","1358.8",3,"27.png",36
"181","3",3,"T3Trial","Rating Screen","887.6",1,"10.png",37
"182","3",3,"T3Trial","Rating Screen","887",1,"26.png",38
"183","3",3,"T3Trial","Rating Screen","622.8",1,"11.png",39
"184","3",3,"T3Trial","Rating Screen","735.9",1,"63.png",40
"185","3",3,"T3Trial","Rating Screen","779.3",1,"12.png",41
"186","3",3,"T3Trial","Rating Screen","1362.3",1,"32.png",42
"187","3",3,"T3Trial","Rating Screen","922.7",1,"50.png",43
"188","3",3,"T3Trial","Rating Screen","1072.1",1,"68.png",44
"189","3",3,"T3Trial","Rating Screen","1242.8",0,"7.png",45
"190","3",3,"T3Trial","Rating Screen","634.8",0,"54.png",46
"191","3",3,"T3Trial","Rating Screen","1741.7",1,"61.png",47
"192","3",3,"T3Trial","Rating Screen","1167.2",2,"69.png",48
"193","3",3,"T3Trial","Rating Screen","1837.1",0,"41.png",49
"194","3",3,"T3Trial","Rating Screen","575.3",1,"20.png",50
"195","3",3,"T3Trial","Rating Screen","627.7",1,"22.png",51
"196","3",3,"T3Trial","Rating Screen","968.7",2,"43.png",52
"197","3",3,"T3Trial","Rating Screen","709.9",1,"72.png",53
"198","3",3,"T3Trial","Rating Screen","721.7",1,"6.png",54
"199","3",3,"T3Trial","Rating Screen","736.7",1,"17.png",55
"200","3",3,"T3Trial","Rating Screen","1581.4",3,"59.png",56
"201","3",3,"T3Trial","Rating Screen","799.4",1,"71.png",57
"202","3",3,"T3Trial","Rating Screen","975",1,"46.png",58
"203","3",3,"T3Trial","Rating Screen","1031.9",2,"36.png",59
"204","3",3,"T3Trial","Rating Screen","1193.8",3,"45.png",60
"205","3",3,"T3Trial","Rating Screen","1883.2",3,"48.png",61
"206","3",3,"T3Trial","Rating Screen","1068.3",3,"2.png",62
"207","3",3,"T3Trial","Rating Screen","851.2",1,"29.png",63
"208","3",3,"T3Trial","Rating Screen","787.2",1,"37.png",64
"209","3",3,"T3Trial","Rating Screen","486.5",2,"18.png",65
"210","3",3,"T3Trial","Rating Screen","624.1",1,"62.png",66
"211","3",3,"T3Trial","Rating Screen","560.5",1,"14.png",67
"212","3",3,"T3Trial","Rating Screen","440.7",1,"34.png",68
"213","3",3,"T3Trial","Rating Screen","490.6",1,"31.png",69
"214","3",3,"T3Trial","Rating Screen","640.8",1,"55.png",70
"215","3",3,"T3Trial","Rating Screen","536.7",1,"67.png",71
"216","3",3,"T3Trial","Rating Screen","638.8",1,"39.png",72
"217","4",3,"T3Trial","Rating Screen","2401.7",3,"42.png",1
"218","4",3,"T3Trial","Rating Screen","1774.2",2,"66.png",2
"219","4",3,"T3Trial","Rating Screen","1367.2",2,"21.png",3
"220","4",3,"T3Trial","Rating Screen","1241.2",3,"55.png",4
"221","4",3,"T3Trial","Rating Screen","1698.8",3,"51.png",5
"222","4",3,"T3Trial","Rating Screen","2065.9",3,"24.png",6
"223","4",3,"T3Trial","Rating Screen","1656",2,"13.png",7
"224","4",3,"T3Trial","Rating Screen","1536",3,"64.png",8
"225","4",3,"T3Trial","Rating Screen","2396.4",3,"7.png",9
"226","4",3,"T3Trial","Rating Screen","2063.2",1,"33.png",10
"227","4",3,"T3Trial","Rating Screen","1541.2",1,"20.png",11
"228","4",3,"T3Trial","Rating Screen","1264.4",3,"27.png",12
"229","4",3,"T3Trial","Rating Screen","2312.4",3,"8.png",13
"230","4",3,"T3Trial","Rating Screen","1540.8",3,"49.png",14
"231","4",3,"T3Trial","Rating Screen","2887.6",0,"65.png",15
"232","4",3,"T3Trial","Rating Screen","2150.3",0,"71.png",16
"233","4",3,"T3Trial","Rating Screen","2105.4",3,"69.png",17
"234","4",3,"T3Trial","Rating Screen","1812.1",2,"37.png",18
"235","4",3,"T3Trial","Rating Screen","1616.6",3,"46.png",19
"236","4",3,"T3Trial","Rating Screen","954.8",3,"58.png",20
"237","4",3,"T3Trial","Rating Screen","1494.5",3,"48.png",21
"238","4",3,"T3Trial","Rating Screen","1435.5",3,"53.png",22
"239","4",3,"T3Trial","Rating Screen","1051",3,"29.png",23
"240","4",3,"T3Trial","Rating Screen","1754.4",3,"38.png",24
"241","4",3,"T3Trial","Rating Screen","1478.6",2,"18.png",25
"242","4",3,"T3Trial","Rating Screen","1777.4",1,"4.png",26
"243","4",3,"T3Trial","Rating Screen","2287.4",2,"3.png",27
"244","4",3,"T3Trial","Rating Screen","1452.9",2,"60.png",28
"245","4",3,"T3Trial","Rating Screen","1065.3",2,"54.png",29
"246","4",3,"T3Trial","Rating Screen","1040.2",3,"11.png",30
"247","4",3,"T3Trial","Rating Screen","854.7",3,"56.png",31
"248","4",3,"T3Trial","Rating Screen","1039.1",3,"67.png",32
"249","4",3,"T3Trial","Rating Screen","976.8",3,"62.png",33
"250","4",3,"T3Trial","Rating Screen","1034.2",3,"2.png",34
"251","4",3,"T3Trial","Rating Screen","2170.3",0,"5.png",35
"252","4",3,"T3Trial","Rating Screen","2342.3",1,"28.png",36
"253","4",3,"T3Trial","Rating Screen","2030.1",3,"32.png",37
"254","4",3,"T3Trial","Rating Screen","1732.5",2,"39.png",38
"255","4",3,"T3Trial","Rating Screen","1719.2",3,"50.png",39
"256","4",3,"T3Trial","Rating Screen","1045.8",3,"52.png",40
"257","4",3,"T3Trial","Rating Screen","1414.1",3,"15.png",41
"258","4",3,"T3Trial","Rating Screen","775.3",3,"59.png",42
"259","4",3,"T3Trial","Rating Screen","1535.8",2,"41.png",43
"260","4",3,"T3Trial","Rating Screen","1246.1",2,"6.png",44
"261","4",3,"T3Trial","Rating Screen","1870.8",3,"43.png",45
"262","4",3,"T3Trial","Rating Screen","1283.6",3,"61.png",46
"263","4",3,"T3Trial","Rating Screen","1842.5",1,"34.png",47
"264","4",3,"T3Trial","Rating Screen","1327.8",2,"63.png",48
"265","4",3,"T3Trial","Rating Screen","1857.5",3,"16.png",49
"266","4",3,"T3Trial","Rating Screen","2924.7",0,"12.png",50
"267","4",3,"T3Trial","Rating Screen","3847.1",2,"30.png",51
"268","4",3,"T3Trial","Rating Screen","2265",0,"10.png",52
"269","4",3,"T3Trial","Rating Screen","2152.4",3,"44.png",53
"270","4",3,"T3Trial","Rating Screen","1778.5",2,"68.png",54
"271","4",3,"T3Trial","Rating Screen","1375.1",2,"72.png",55
"272","4",3,"T3Trial","Rating Screen","1412.8",3,"57.png",56
"273","4",3,"T3Trial","Rating Screen","2738.3",-1,"70.png",57
"274","4",3,"T3Trial","Rating Screen","2019.3",2,"36.png",58
"275","4",3,"T3Trial","Rating Screen","1902.9",2,"14.png",59
"276","4",3,"T3Trial","Rating Screen","1406.4",3,"22.png",60
"277","4",3,"T3Trial","Rating Screen","2198.4",2,"23.png",61
"278","4",3,"T3Trial","Rating Screen","1301.5",3,"47.png",62
"279","4",3,"T3Trial","Rating Screen","1150.1",3,"25.png",63
"280","4",3,"T3Trial","Rating Screen","1590.2",2,"45.png",64
"281","4",3,"T3Trial","Rating Screen","2274.4",1,"35.png",65
"282","4",3,"T3Trial","Rating Screen","1557.3",2,"1.png",66
"283","4",3,"T3Trial","Rating Screen","1766.8",3,"19.png",67
"284","4",3,"T3Trial","Rating Screen","1140.9",3,"40.png",68
"285","4",3,"T3Trial","Rating Screen","1932",0,"17.png",69
"286","4",3,"T3Trial","Rating Screen","2010.8",1,"31.png",70
"287","4",3,"T3Trial","Rating Screen","1807.4",0,"26.png",71
"288","4",3,"T3Trial","Rating Screen","1380.3",3,"9.png",72
"289","5",3,"T3Trial","Rating Screen","3003.1",2,"8.png",1
"290","5",3,"T3Trial","Rating Screen","1151.8",3,"24.png",2
"291","5",3,"T3Trial","Rating Screen","1176.4",3,"29.png",3
"292","5",3,"T3Trial","Rating Screen","1463.8",1,"28.png",4
"293","5",3,"T3Trial","Rating Screen","1465.8",0,"37.png",5
"294","5",3,"T3Trial","Rating Screen","1157.4",0,"54.png",6
"295","5",3,"T3Trial","Rating Screen","1075.9",1,"30.png",7
"296","5",3,"T3Trial","Rating Screen","1253.8",2,"49.png",8
"297","5",3,"T3Trial","Rating Screen","1018.6",2,"27.png",9
"298","5",3,"T3Trial","Rating Screen","1051.3",1,"47.png",10
"299","5",3,"T3Trial","Rating Screen","878",1,"65.png",11
"300","5",3,"T3Trial","Rating Screen","1622.1",0,"53.png",12
"301","5",3,"T3Trial","Rating Screen","1072.7",1,"5.png",13
"302","5",3,"T3Trial","Rating Screen","775.6",1,"51.png",14
"303","5",3,"T3Trial","Rating Screen","1397.7",2,"55.png",15
"304","5",3,"T3Trial","Rating Screen","1093.6",2,"13.png",16
"305","5",3,"T3Trial","Rating Screen","1188.9",2,"22.png",17
"306","5",3,"T3Trial","Rating Screen","1065.4",2,"59.png",18
"307","5",3,"T3Trial","Rating Screen","1214.1",2,"48.png",19
"308","5",3,"T3Trial","Rating Screen","890.3",1,"34.png",20
"309","5",3,"T3Trial","Rating Screen","1417.2",1,"61.png",21
"310","5",3,"T3Trial","Rating Screen","1061.2",2,"12.png",22
"311","5",3,"T3Trial","Rating Screen","937.7",1,"50.png",23
"312","5",3,"T3Trial","Rating Screen","1313",2,"52.png",24
"313","5",3,"T3Trial","Rating Screen","959.4",1,"25.png",25
"314","5",3,"T3Trial","Rating Screen","1038.7",1,"9.png",26
"315","5",3,"T3Trial","Rating Screen","771.8",1,"42.png",27
"316","5",3,"T3Trial","Rating Screen","753.7",1,"39.png",28
"317","5",3,"T3Trial","Rating Screen","967.9",1,"67.png",29
"318","5",3,"T3Trial","Rating Screen","875.3",1,"6.png",30
"319","5",3,"T3Trial","Rating Screen","1392.9",3,"11.png",31
"320","5",3,"T3Trial","Rating Screen","764.7",2,"72.png",32
"321","5",3,"T3Trial","Rating Screen","786.5",2,"38.png",33
"322","5",3,"T3Trial","Rating Screen","909.2",1,"31.png",34
"323","5",3,"T3Trial","Rating Screen","859.2",1,"36.png",35
"324","5",3,"T3Trial","Rating Screen","1113.5",2,"17.png",36
"325","5",3,"T3Trial","Rating Screen","1124.3",1,"46.png",37
"326","5",3,"T3Trial","Rating Screen","657.8",1,"19.png",38
"327","5",3,"T3Trial","Rating Screen","887.2",2,"60.png",39
"328","5",3,"T3Trial","Rating Screen","1066.5",2,"43.png",40
"329","5",3,"T3Trial","Rating Screen","762.1",1,"62.png",41
"330","5",3,"T3Trial","Rating Screen","709.2",1,"71.png",42
"331","5",3,"T3Trial","Rating Screen","633.8",1,"68.png",43
"332","5",3,"T3Trial","Rating Screen","1299.7",0,"4.png",44
"333","5",3,"T3Trial","Rating Screen","1105.3",1,"66.png",45
"334","5",3,"T3Trial","Rating Screen","1110.5",1,"14.png",46
"335","5",3,"T3Trial","Rating Screen","1291.7",0,"21.png",47
"336","5",3,"T3Trial","Rating Screen","862.6",1,"15.png",48
"337","5",3,"T3Trial","Rating Screen","1050.2",2,"45.png",49
"338","5",3,"T3Trial","Rating Screen","721.6",1,"3.png",50
"339","5",3,"T3Trial","Rating Screen","1219.5",1,"63.png",51
"340","5",3,"T3Trial","Rating Screen","2401.9",3,"26.png",52
"341","5",3,"T3Trial","Rating Screen","1121.2",0,"44.png",53
"342","5",3,"T3Trial","Rating Screen","788.3",0,"69.png",54
"343","5",3,"T3Trial","Rating Screen","857",1,"41.png",55
"344","5",3,"T3Trial","Rating Screen","770.6",1,"23.png",56
"345","5",3,"T3Trial","Rating Screen","828.9",0,"70.png",57
"346","5",3,"T3Trial","Rating Screen","816.7",1,"2.png",58
"347","5",3,"T3Trial","Rating Screen","921.5",0,"18.png",59
"348","5",3,"T3Trial","Rating Screen","1216",1,"33.png",60
"349","5",3,"T3Trial","Rating Screen","779.9",1,"40.png",61
"350","5",3,"T3Trial","Rating Screen","879.3",1,"58.png",62
"351","5",3,"T3Trial","Rating Screen","927",1,"20.png",63
"352","5",3,"T3Trial","Rating Screen","940.7",1,"35.png",64
"353","5",3,"T3Trial","Rating Screen","941.2",0,"16.png",65
"354","5",3,"T3Trial","Rating Screen","1035.2",2,"1.png",66
"355","5",3,"T3Trial","Rating Screen","788.6",1,"56.png",67
"356","5",3,"T3Trial","Rating Screen","1186.2",1,"7.png",68
"357","5",3,"T3Trial","Rating Screen","1328",1,"64.png",69
"358","5",3,"T3Trial","Rating Screen","1140.8",0,"10.png",70
"359","5",3,"T3Trial","Rating Screen","1670.9",0,"57.png",71
"360","5",3,"T3Trial","Rating Screen","799.5",1,"32.png",72
"361","6",3,"T3Trial","Rating Screen","2037.4",1,"62.png",1
"362","6",3,"T3Trial","Rating Screen","1339.3",0,"69.png",2
"363","6",3,"T3Trial","Rating Screen","1300.5",0,"19.png",3
"364","6",3,"T3Trial","Rating Screen","1322.2",-1,"47.png",4
"365","6",3,"T3Trial","Rating Screen","1502.7",-1,"45.png",5
"366","6",3,"T3Trial","Rating Screen","1848.4",1,"32.png",6
"367","6",3,"T3Trial","Rating Screen","1243.5",0,"30.png",7
"368","6",3,"T3Trial","Rating Screen","1080.7",1,"2.png",8
"369","6",3,"T3Trial","Rating Screen","752.5",1,"68.png",9
"370","6",3,"T3Trial","Rating Screen","1096.9",1,"31.png",10
"371","6",3,"T3Trial","Rating Screen","1066",0,"42.png",11
"372","6",3,"T3Trial","Rating Screen","1142.9",1,"56.png",12
"373","6",3,"T3Trial","Rating Screen","1200.6",1,"58.png",13
"374","6",3,"T3Trial","Rating Screen","1104.9",2,"36.png",14
"375","6",3,"T3Trial","Rating Screen","881.0999999",1,"72.png",15
"376","6",3,"T3Trial","Rating Screen","7241.7",3,"33.png",16
"377","6",3,"T3Trial","Rating Screen","999.1999998",1,"22.png",17
"378","6",3,"T3Trial","Rating Screen","1111.3",1,"9.png",18
"379","6",3,"T3Trial","Rating Screen","1184.7",-1,"21.png",19
"380","6",3,"T3Trial","Rating Screen","1109.8",-1,"67.png",20
"381","6",3,"T3Trial","Rating Screen","1659.6",0,"38.png",21
"382","6",3,"T3Trial","Rating Screen","1104.5",0,"5.png",22
"383","6",3,"T3Trial","Rating Screen","1216.7",0,"34.png",23
"384","6",3,"T3Trial","Rating Screen","677.3999999",0,"51.png",24
"385","6",3,"T3Trial","Rating Screen","1274",1,"64.png",25
"386","6",3,"T3Trial","Rating Screen","1341.7",1,"8.png",26
"387","6",3,"T3Trial","Rating Screen","1104.5",0,"53.png",27
"388","6",3,"T3Trial","Rating Screen","1014.6",0,"7.png",28
"389","6",3,"T3Trial","Rating Screen","1256.1",0,"70.png",29
"390","6",3,"T3Trial","Rating Screen","1345.5",1,"17.png",30
"391","6",3,"T3Trial","Rating Screen","1150.6",1,"35.png",31
"392","6",3,"T3Trial","Rating Screen","1073",0,"23.png",32
"393","6",3,"T3Trial","Rating Screen","1210.9",0,"41.png",33
"394","6",3,"T3Trial","Rating Screen","1049.8",1,"54.png",34
"395","6",3,"T3Trial","Rating Screen","986.3999999",0,"13.png",35
"396","6",3,"T3Trial","Rating Screen","1150",0,"48.png",36
"397","6",3,"T3Trial","Rating Screen","876.9000001",1,"1.png",37
"398","6",3,"T3Trial","Rating Screen","628.5",1,"57.png",38
"399","6",3,"T3Trial","Rating Screen","727.8000002",1,"49.png",39
"400","6",3,"T3Trial","Rating Screen","1185.7",2,"59.png",40
"401","6",3,"T3Trial","Rating Screen","937.1000001",0,"37.png",41
"402","6",3,"T3Trial","Rating Screen","1205.2",1,"6.png",42
"403","6",3,"T3Trial","Rating Screen","683.8999999",1,"18.png",43
"404","6",3,"T3Trial","Rating Screen","862.5999999",1,"46.png",44
"405","6",3,"T3Trial","Rating Screen","1289.9",2,"15.png",45
"406","6",3,"T3Trial","Rating Screen","1255.4",1,"11.png",46
"407","6",3,"T3Trial","Rating Screen","848.6999998",1,"63.png",47
"408","6",3,"T3Trial","Rating Screen","796.1999998",1,"40.png",48
"409","6",3,"T3Trial","Rating Screen","683.4000001",1,"44.png",49
"410","6",3,"T3Trial","Rating Screen","589",1,"39.png",50
"411","6",3,"T3Trial","Rating Screen","1373.2",2,"50.png",51
"412","6",3,"T3Trial","Rating Screen","1401.5",0,"28.png",52
"413","6",3,"T3Trial","Rating Screen","1041.7",1,"4.png",53
"414","6",3,"T3Trial","Rating Screen","1281.4",1,"20.png",54
"415","6",3,"T3Trial","Rating Screen","1346",0,"66.png",55
"416","6",3,"T3Trial","Rating Screen","945.0999999",0,"52.png",56
"417","6",3,"T3Trial","Rating Screen","1145",0,"24.png",57
"418","6",3,"T3Trial","Rating Screen","798.2",0,"16.png",58
"419","6",3,"T3Trial","Rating Screen","668.2",0,"55.png",59
"420","6",3,"T3Trial","Rating Screen","847.2",0,"71.png",60
"421","6",3,"T3Trial","Rating Screen","839.8",0,"3.png",61
"422","6",3,"T3Trial","Rating Screen","706.8",0,"27.png",62
"423","6",3,"T3Trial","Rating Screen","883.3",0,"65.png",63
"424","6",3,"T3Trial","Rating Screen","1986.9",2,"43.png",64
"425","6",3,"T3Trial","Rating Screen","1096.3",0,"60.png",65
"426","6",3,"T3Trial","Rating Screen","944.2",0,"61.png",66
"427","6",3,"T3Trial","Rating Screen","825.8",0,"25.png",67
"428","6",3,"T3Trial","Rating Screen","841.7",0,"10.png",68
"429","6",3,"T3Trial","Rating Screen","1025.6",0,"26.png",69
"430","6",3,"T3Trial","Rating Screen","721.0999999",0,"14.png",70
"431","6",3,"T3Trial","Rating Screen","615.2",0,"29.png",71
"432","6",3,"T3Trial","Rating Screen","1420.1",1,"12.png",72
"433","7",3,"T3Trial","Rating Screen","6580",1,"4.png",1
"434","7",3,"T3Trial","Rating Screen","3384",1,"8.png",2
"435","7",3,"T3Trial","Rating Screen","7439",2,"62.png",3
"436","7",3,"T3Trial","Rating Screen","2282",2,"61.png",4
"437","7",3,"T3Trial","Rating Screen","2173",2,"67.png",5
"438","7",3,"T3Trial","Rating Screen","2421",1,"57.png",6
"439","7",3,"T3Trial","Rating Screen","4228",2,"16.png",7
"440","7",3,"T3Trial","Rating Screen","2568",2,"13.png",8
"441","7",3,"T3Trial","Rating Screen","2331",2,"54.png",9
"442","7",3,"T3Trial","Rating Screen","1852",2,"23.png",10
"443","7",3,"T3Trial","Rating Screen","1773",2,"49.png",11
"444","7",3,"T3Trial","Rating Screen","4084",3,"72.png",12
"445","7",3,"T3Trial","Rating Screen","2634",2,"12.png",13
"446","7",3,"T3Trial","Rating Screen","2466",3,"41.png",14
"447","7",3,"T3Trial","Rating Screen","4421",2,"29.png",15
"448","7",3,"T3Trial","Rating Screen","2953",3,"55.png",16
"449","7",3,"T3Trial","Rating Screen","1937",2,"35.png",17
"450","7",3,"T3Trial","Rating Screen","3029",3,"48.png",18
"451","7",3,"T3Trial","Rating Screen","3336",2,"9.png",19
"452","7",3,"T3Trial","Rating Screen","1926",2,"65.png",20
"453","7",3,"T3Trial","Rating Screen","1939",2,"34.png",21
"454","7",3,"T3Trial","Rating Screen","4311",2,"69.png",22
"455","7",3,"T3Trial","Rating Screen","1370",2,"58.png",23
"456","7",3,"T3Trial","Rating Screen","1736",2,"50.png",24
"457","7",3,"T3Trial","Rating Screen","1709",2,"37.png",25
"458","7",3,"T3Trial","Rating Screen","2360",2,"21.png",26
"459","7",3,"T3Trial","Rating Screen","2587",2,"63.png",27
"460","7",3,"T3Trial","Rating Screen","2598",3,"6.png",28
"461","7",3,"T3Trial","Rating Screen","2544",3,"40.png",29
"462","7",3,"T3Trial","Rating Screen","2524",2,"33.png",30
"463","7",3,"T3Trial","Rating Screen","2731",3,"70.png",31
"464","7",3,"T3Trial","Rating Screen","1581",3,"11.png",32
"465","7",3,"T3Trial","Rating Screen","2716",3,"46.png",33
"466","7",3,"T3Trial","Rating Screen","1626",3,"45.png",34
"467","7",3,"T3Trial","Rating Screen","2459",3,"2.png",35
"468","7",3,"T3Trial","Rating Screen","2634",3,"30.png",36
"469","7",3,"T3Trial","Rating Screen","2592",3,"39.png",37
"470","7",3,"T3Trial","Rating Screen","2716",2,"5.png",38
"471","7",3,"T3Trial","Rating Screen","3231",1,"20.png",39
"472","7",3,"T3Trial","Rating Screen","2334",2,"7.png",40
"473","7",3,"T3Trial","Rating Screen","2487",1,"64.png",41
"474","7",3,"T3Trial","Rating Screen","2451",2,"28.png",42
"475","7",3,"T3Trial","Rating Screen","2738",3,"47.png",43
"476","7",3,"T3Trial","Rating Screen","4632",2,"68.png",44
"477","7",3,"T3Trial","Rating Screen","1547",2,"38.png",45
"478","7",3,"T3Trial","Rating Screen","2472",2,"25.png",46
"479","7",3,"T3Trial","Rating Screen","1415",2,"14.png",47
"480","7",3,"T3Trial","Rating Screen","2486",1,"43.png",48
"481","7",3,"T3Trial","Rating Screen","2556",3,"22.png",49
"482","7",3,"T3Trial","Rating Screen","1547",2,"26.png",50
"483","7",3,"T3Trial","Rating Screen","1146",2,"71.png",51
"484","7",3,"T3Trial","Rating Screen","2292",3,"17.png",52
"485","7",3,"T3Trial","Rating Screen","2530",2,"27.png",53
"486","7",3,"T3Trial","Rating Screen","1824",2,"3.png",54
"487","7",3,"T3Trial","Rating Screen","2153",1,"53.png",55
"488","7",3,"T3Trial","Rating Screen","1556",1,"60.png",56
"489","7",3,"T3Trial","Rating Screen","1797",2,"18.png",57
"490","7",3,"T3Trial","Rating Screen","2068",2,"51.png",58
"491","7",3,"T3Trial","Rating Screen","1691",2,"36.png",59
"492","7",3,"T3Trial","Rating Screen","1957",2,"1.png",60
"493","7",3,"T3Trial","Rating Screen","3481",1,"19.png",61
"494","7",3,"T3Trial","Rating Screen","2767",3,"10.png",62
"495","7",3,"T3Trial","Rating Screen","2031",1,"56.png",63
"496","7",3,"T3Trial","Rating Screen","2683",2,"24.png",64
"497","7",3,"T3Trial","Rating Screen","2045",3,"31.png",65
"498","7",3,"T3Trial","Rating Screen","2615",2,"59.png",66
"499","7",3,"T3Trial","Rating Screen","2119",2,"15.png",67
"500","7",3,"T3Trial","Rating Screen","1369",2,"66.png",68
"501","7",3,"T3Trial","Rating Screen","1783",2,"44.png",69
"502","7",3,"T3Trial","Rating Screen","2202",1,"32.png",70
"503","7",3,"T3Trial","Rating Screen","2194",2,"52.png",71
"504","7",3,"T3Trial","Rating Screen","1655",2,"42.png",72
"505","8",3,"T3Trial","Rating Screen","6578.5",0,"47.png",1
"506","8",3,"T3Trial","Rating Screen","2860.4",2,"2.png",2
"507","8",3,"T3Trial","Rating Screen","2731.5",2,"66.png",3
"508","8",3,"T3Trial","Rating Screen","5282.6",3,"31.png",4
"509","8",3,"T3Trial","Rating Screen","1124.4",3,"21.png",5
"510","8",3,"T3Trial","Rating Screen","1129",3,"63.png",6
"511","8",3,"T3Trial","Rating Screen","1179.7",3,"45.png",7
"512","8",3,"T3Trial","Rating Screen","991.1",3,"68.png",8
"513","8",3,"T3Trial","Rating Screen","1751.9",3,"44.png",9
"514","8",3,"T3Trial","Rating Screen","1181.6",3,"58.png",10
"515","8",3,"T3Trial","Rating Screen","1090.9",3,"65.png",11
"516","8",3,"T3Trial","Rating Screen","985.4",3,"1.png",12
"517","8",3,"T3Trial","Rating Screen","3709.7",0,"37.png",13
"518","8",3,"T3Trial","Rating Screen","1140.5",2,"55.png",14
"519","8",3,"T3Trial","Rating Screen","1037",2,"18.png",15
"520","8",3,"T3Trial","Rating Screen","777.6",2,"52.png",16
"521","8",3,"T3Trial","Rating Screen","2094.2",3,"40.png",17
"522","8",3,"T3Trial","Rating Screen","884.4",3,"38.png",18
"523","8",3,"T3Trial","Rating Screen","866.6",3,"34.png",19
"524","8",3,"T3Trial","Rating Screen","1507.4",2,"3.png",20
"525","8",3,"T3Trial","Rating Screen","844.5",2,"16.png",21
"526","8",3,"T3Trial","Rating Screen","1923",3,"15.png",22
"527","8",3,"T3Trial","Rating Screen","847.1",3,"12.png",23
"528","8",3,"T3Trial","Rating Screen","1025.7",3,"28.png",24
"529","8",3,"T3Trial","Rating Screen","801.7",3,"5.png",25
"530","8",3,"T3Trial","Rating Screen","907.2",3,"50.png",26
"531","8",3,"T3Trial","Rating Screen","741.5",3,"36.png",27
"532","8",3,"T3Trial","Rating Screen","719.5",3,"71.png",28
"533","8",3,"T3Trial","Rating Screen","437.7",3,"57.png",29
"534","8",3,"T3Trial","Rating Screen","629.6",3,"13.png",30
"535","8",3,"T3Trial","Rating Screen","1325",3,"22.png",31
"536","8",3,"T3Trial","Rating Screen","885.1",3,"69.png",32
"537","8",3,"T3Trial","Rating Screen","679.3",3,"53.png",33
"538","8",3,"T3Trial","Rating Screen","678.4",3,"10.png",34
"539","8",3,"T3Trial","Rating Screen","696.1",3,"6.png",35
"540","8",3,"T3Trial","Rating Screen","772.6",3,"56.png",36
"541","8",3,"T3Trial","Rating Screen","735.8",3,"62.png",37
"542","8",3,"T3Trial","Rating Screen","595.5",3,"39.png",38
"543","8",3,"T3Trial","Rating Screen","573.1",3,"67.png",39
"544","8",3,"T3Trial","Rating Screen","611.2",3,"23.png",40
"545","8",3,"T3Trial","Rating Screen","472.3",3,"25.png",41
"546","8",3,"T3Trial","Rating Screen","346.4",3,"60.png",42
"547","8",3,"T3Trial","Rating Screen","573.8",3,"20.png",43
"548","8",3,"T3Trial","Rating Screen","407",3,"29.png",44
"549","8",3,"T3Trial","Rating Screen","609.6",3,"32.png",45
"550","8",3,"T3Trial","Rating Screen","2915.8",2,"27.png",46
"551","8",3,"T3Trial","Rating Screen","1913.7",3,"43.png",47
"552","8",3,"T3Trial","Rating Screen","2158.9",1,"51.png",48
"553","8",3,"T3Trial","Rating Screen","11457.2",0,"70.png",49
"554","8",3,"T3Trial","Rating Screen","2011.8",-1,"9.png",50
"555","8",3,"T3Trial","Rating Screen","1645.4",2,"41.png",51
"556","8",3,"T3Trial","Rating Screen","1902.6",3,"49.png",52
"557","8",3,"T3Trial","Rating Screen","953.1",3,"19.png",53
"558","8",3,"T3Trial","Rating Screen","964.5",2,"30.png",54
"559","8",3,"T3Trial","Rating Screen","1940.7",3,"11.png",55
"560","8",3,"T3Trial","Rating Screen","1141",3,"4.png",56
"561","8",3,"T3Trial","Rating Screen","1514.8",2,"33.png",57
"562","8",3,"T3Trial","Rating Screen","1272.5",3,"61.png",58
"563","8",3,"T3Trial","Rating Screen","834.3",3,"24.png",59
"564","8",3,"T3Trial","Rating Screen","1650.8",2,"54.png",60
"565","8",3,"T3Trial","Rating Screen","1061.3",3,"26.png",61
"566","8",3,"T3Trial","Rating Screen","946.9",3,"14.png",62
"567","8",3,"T3Trial","Rating Screen","977.6",3,"48.png",63
"568","8",3,"T3Trial","Rating Screen","1749.7",2,"7.png",64
"569","8",3,"T3Trial","Rating Screen","1414.3",3,"17.png",65
"570","8",3,"T3Trial","Rating Screen","853.3",3,"42.png",66
"571","8",3,"T3Trial","Rating Screen","1033.3",3,"8.png",67
"572","8",3,"T3Trial","Rating Screen","891.7",3,"64.png",68
"573","8",3,"T3Trial","Rating Screen","1014.7",3,"72.png",69
"574","8",3,"T3Trial","Rating Screen","1461.7",2,"46.png",70
"575","8",3,"T3Trial","Rating Screen","1116.8",3,"59.png",71
"576","8",3,"T3Trial","Rating Screen","839.9",3,"35.png",72
"577","10",3,"T3Trial","Rating Screen","4914.2",2,"39.png",1
"578","10",3,"T3Trial","Rating Screen","3009.9",1,"40.png",2
"579","10",3,"T3Trial","Rating Screen","1525.9",1,"57.png",3
"580","10",3,"T3Trial","Rating Screen","1524",2,"3.png",4
"581","10",3,"T3Trial","Rating Screen","2090.2",1,"25.png",5
"582","10",3,"T3Trial","Rating Screen","1708.8",1,"41.png",6
"583","10",3,"T3Trial","Rating Screen","2174",2,"6.png",7
"584","10",3,"T3Trial","Rating Screen","1708.7",2,"18.png",8
"585","10",3,"T3Trial","Rating Screen","2803.3",2,"11.png",9
"586","10",3,"T3Trial","Rating Screen","2074.7",3,"1.png",10
"587","10",3,"T3Trial","Rating Screen","2039.5",1,"55.png",11
"588","10",3,"T3Trial","Rating Screen","1380.2",1,"47.png",12
"589","10",3,"T3Trial","Rating Screen","1666.4",1,"37.png",13
"590","10",3,"T3Trial","Rating Screen","1430.5",1,"24.png",14
"591","10",3,"T3Trial","Rating Screen","1636",2,"60.png",15
"592","10",3,"T3Trial","Rating Screen","2204.3",0,"51.png",16
"593","10",3,"T3Trial","Rating Screen","1291.6",1,"32.png",17
"594","10",3,"T3Trial","Rating Screen","2005.7",2,"71.png",18
"595","10",3,"T3Trial","Rating Screen","1505.5",2,"33.png",19
"596","10",3,"T3Trial","Rating Screen","1909.9",2,"30.png",20
"597","10",3,"T3Trial","Rating Screen","2882.2",1,"68.png",21
"598","10",3,"T3Trial","Rating Screen","2690.8",3,"29.png",22
"599","10",3,"T3Trial","Rating Screen","1722.8",2,"17.png",23
"600","10",3,"T3Trial","Rating Screen","1866",2,"50.png",24
"601","10",3,"T3Trial","Rating Screen","1529.8",1,"52.png",25
"602","10",3,"T3Trial","Rating Screen","2449.7",1,"5.png",26
"603","10",3,"T3Trial","Rating Screen","2110.5",2,"14.png",27
"604","10",3,"T3Trial","Rating Screen","1933.2",1,"2.png",28
"605","10",3,"T3Trial","Rating Screen","1844",2,"9.png",29
"606","10",3,"T3Trial","Rating Screen","2098.1",2,"64.png",30
"607","10",3,"T3Trial","Rating Screen","1808",2,"54.png",31
"608","10",3,"T3Trial","Rating Screen","1518.2",2,"36.png",32
"609","10",3,"T3Trial","Rating Screen","1518.3",2,"48.png",33
"610","10",3,"T3Trial","Rating Screen","1212.2",1,"59.png",34
"611","10",3,"T3Trial","Rating Screen","1283.8",1,"66.png",35
"612","10",3,"T3Trial","Rating Screen","1326.3",2,"70.png",36
"613","10",3,"T3Trial","Rating Screen","1593.1",3,"28.png",37
"614","10",3,"T3Trial","Rating Screen","1504.7",2,"44.png",38
"615","10",3,"T3Trial","Rating Screen","1424.1",1,"15.png",39
"616","10",3,"T3Trial","Rating Screen","1179.3",2,"46.png",40
"617","10",3,"T3Trial","Rating Screen","3048.9",2,"34.png",41
"618","10",3,"T3Trial","Rating Screen","1422.3",2,"72.png",42
"619","10",3,"T3Trial","Rating Screen","1325.3",1,"19.png",43
"620","10",3,"T3Trial","Rating Screen","1355.8",2,"69.png",44
"621","10",3,"T3Trial","Rating Screen","1401.7",1,"7.png",45
"622","10",3,"T3Trial","Rating Screen","1651.5",1,"13.png",46
"623","10",3,"T3Trial","Rating Screen","1148.6",1,"63.png",47
"624","10",3,"T3Trial","Rating Screen","1635.3",2,"27.png",48
"625","10",3,"T3Trial","Rating Screen","1484.3",2,"26.png",49
"626","10",3,"T3Trial","Rating Screen","2289.8",2,"58.png",50
"627","10",3,"T3Trial","Rating Screen","1074",1,"42.png",51
"628","10",3,"T3Trial","Rating Screen","1819.4",3,"53.png",52
"629","10",3,"T3Trial","Rating Screen","1360.2",2,"38.png",53
"630","10",3,"T3Trial","Rating Screen","1244.4",2,"45.png",54
"631","10",3,"T3Trial","Rating Screen","1532.4",2,"43.png",55
"632","10",3,"T3Trial","Rating Screen","2332.8",1,"8.png",56
"633","10",3,"T3Trial","Rating Screen","1882.4",1,"12.png",57
"634","10",3,"T3Trial","Rating Screen","3575.6",1,"65.png",58
"635","10",3,"T3Trial","Rating Screen","1926.4",1,"56.png",59
"636","10",3,"T3Trial","Rating Screen","1307.7",2,"31.png",60
"637","10",3,"T3Trial","Rating Screen","1417.8",2,"22.png",61
"638","10",3,"T3Trial","Rating Screen","906.8",2,"49.png",62
"639","10",3,"T3Trial","Rating Screen","1501.3",2,"61.png",63
"640","10",3,"T3Trial","Rating Screen","1593.3",2,"67.png",64
"641","10",3,"T3Trial","Rating Screen","1915.8",3,"21.png",65
"642","10",3,"T3Trial","Rating Screen","1186",2,"62.png",66
"643","10",3,"T3Trial","Rating Screen","1509.2",2,"4.png",67
"644","10",3,"T3Trial","Rating Screen","2052.8",2,"35.png",68
"645","10",3,"T3Trial","Rating Screen","1157.7",2,"10.png",69
"646","10",3,"T3Trial","Rating Screen","1561.2",1,"16.png",70
"647","10",3,"T3Trial","Rating Screen","1055.1",1,"23.png",71
"648","10",3,"T3Trial","Rating Screen","1923.9",2,"20.png",72
