"","subject","task","block","display","screen","rt","response","correct","correctResponse","T1.pie","T1.reward","T1.fractalInfo","T1.fractalOut","trial"
"1","1",1,"L","T1Trial","Outcome","547.1","right",1,"right","pie0.png",0,"f0.png","f5.png",1
"2","1",1,"L","T1Trial","Outcome","495.7","left",1,"left","pie13.png",0,"f3.png","f7.png",2
"3","1",1,"L","T1Trial","Outcome","489.2","left",1,"left","pie0.png",0,"f0.png","f5.png",3
"4","1",1,"L","T1Trial","Outcome","431.8","right",1,"right","pie13.png",0,"f3.png","f7.png",4
"5","1",1,"L","T1Trial","Outcome","418.3","right",1,"right","pie23.png",1,"f0.png","f0.png",5
"6","1",1,"L","T1Trial","Outcome","484.7","left",1,"left","pie0.png",0,"f0.png","f5.png",6
"7","1",1,"L","T1Trial","Outcome","396.7","right",1,"right","pie0.png",0,"f0.png","f5.png",7
"8","1",1,"L","T1Trial","Outcome","432.6","right",1,"right","pie13.png",0,"f3.png","f7.png",8
"9","1",1,"L","T1Trial","Outcome","440.5","right",1,"right","pie0.png",0,"f0.png","f5.png",9
"10","1",1,"L","T1Trial","Outcome","427.1","left",1,"left","pie13.png",0,"f3.png","f7.png",10
"11","1",1,"L","T1Trial","Outcome","422.6","right",1,"right","pie23.png",1,"f0.png","f0.png",11
"12","1",1,"L","T1Trial","Outcome","402.3","left",1,"left","pie23.png",1,"f0.png","f0.png",12
"13","1",1,"L","T1Trial","Outcome","453.1","right",1,"right","pie0.png",0,"f0.png","f5.png",13
"14","1",1,"L","T1Trial","Outcome","382.6","right",1,"right","pie13.png",0,"f3.png","f7.png",14
"15","1",1,"L","T1Trial","Outcome","386.5","right",1,"right","pie13.png",1,"f3.png","f6.png",15
"16","1",1,"L","T1Trial","Outcome","470.4","left",1,"left","pie23.png",0,"f0.png","f0.png",16
"17","1",1,"L","T1Trial","Outcome","351.3","right",1,"right","pie0.png",0,"f0.png","f5.png",17
"18","1",1,"L","T1Trial","Outcome","357.7","right",1,"right","pie13.png",0,"f3.png","f7.png",18
"19","1",1,"L","T1Trial","Outcome","337.9","right",1,"right","pie0.png",0,"f0.png","f5.png",19
"20","1",1,"L","T1Trial","Outcome","368","right",1,"right","pie13.png",1,"f3.png","f6.png",20
"21","1",1,"L","T1Trial","Outcome","460.8","left",1,"left","pie23.png",0,"f0.png","f0.png",21
"22","1",1,"L","T1Trial","Outcome","333","right",1,"right","pie23.png",0,"f0.png","f0.png",22
"23","1",1,"L","T1Trial","Outcome","324.1","right",1,"right","pie0.png",0,"f0.png","f5.png",23
"24","1",1,"L","T1Trial","Outcome","458.6","right",1,"right","pie13.png",1,"f3.png","f6.png",24
"25","1",1,"L","T1Trial","Outcome","428.1","left",1,"left","pie0.png",0,"f0.png","f5.png",25
"26","1",1,"L","T1Trial","Outcome","487.3","left",1,"left","pie23.png",1,"f0.png","f0.png",26
"27","1",1,"L","T1Trial","Outcome","439","left",1,"left","pie23.png",1,"f0.png","f0.png",27
"28","1",1,"L","T1Trial","Outcome","384.6","right",1,"right","pie0.png",0,"f0.png","f5.png",28
"29","1",1,"L","T1Trial","Outcome","405.1","left",1,"left","pie13.png",0,"f3.png","f7.png",29
"30","1",1,"L","T1Trial","Outcome","384.2","right",1,"right","pie13.png",1,"f3.png","f6.png",30
"31","1",1,"L","T1Trial","Outcome","348.1","right",1,"right","pie23.png",1,"f0.png","f0.png",31
"32","1",1,"L","T1Trial","Outcome","465.4","left",1,"left","pie0.png",0,"f0.png","f5.png",32
"33","1",1,"L","T1Trial","Outcome","393.9","left",1,"left","pie23.png",1,"f0.png","f0.png",33
"34","1",1,"L","T1Trial","Outcome","382.4","left",1,"left","pie23.png",1,"f0.png","f0.png",34
"35","1",1,"L","T1Trial","Outcome","370.7","right",1,"right","pie13.png",0,"f3.png","f7.png",35
"36","1",1,"L","T1Trial","Outcome","430.6","left",1,"left","pie23.png",0,"f0.png","f0.png",36
"37","1",1,"L","T1Trial","Outcome","424.7","left",1,"left","pie0.png",0,"f0.png","f5.png",37
"38","1",1,"L","T1Trial","Outcome","428.2","left",1,"left","pie13.png",1,"f3.png","f6.png",38
"39","1",1,"L","T1Trial","Outcome","431.4","left",1,"left","pie13.png",0,"f3.png","f7.png",39
"40","1",1,"L","T1Trial","Outcome","416.3","left",1,"left","pie0.png",0,"f0.png","f5.png",40
"41","1",1,"L","T1Trial","Outcome","459.5","left",1,"left","pie23.png",1,"f0.png","f0.png",41
"42","1",1,"L","T1Trial","Outcome","380.4","left",1,"left","pie23.png",1,"f0.png","f0.png",42
"43","1",1,"L","T1Trial","Outcome","424.2","left",1,"left","pie23.png",1,"f0.png","f0.png",43
"44","1",1,"L","T1Trial","Outcome","418.9","right",1,"right","pie13.png",0,"f3.png","f7.png",44
"45","1",1,"L","T1Trial","Outcome","446.7","left",1,"left","pie13.png",1,"f3.png","f6.png",45
"46","1",1,"L","T1Trial","Outcome","414.9","right",1,"right","pie13.png",0,"f3.png","f7.png",46
"47","1",1,"L","T1Trial","Outcome","401.9","right",1,"right","pie13.png",0,"f3.png","f7.png",47
"48","1",1,"L","T1Trial","Outcome","398.1","right",1,"right","pie23.png",0,"f0.png","f0.png",48
"49","1",1,"L","T1Trial","Outcome","392.6","right",1,"right","pie23.png",0,"f0.png","f0.png",49
"50","1",1,"L","T1Trial","Outcome","436.5","left",1,"left","pie13.png",0,"f3.png","f7.png",50
"51","1",1,"L","T1Trial","Outcome","382.9","right",1,"right","pie23.png",1,"f0.png","f0.png",51
"52","1",1,"L","T1Trial","Outcome","394.4","right",1,"right","pie23.png",1,"f0.png","f0.png",52
"53","1",1,"L","T1Trial","Outcome","455.3","left",1,"left","pie0.png",0,"f0.png","f5.png",53
"54","1",1,"L","T1Trial","Outcome","424.4","right",1,"right","pie0.png",0,"f0.png","f5.png",54
"55","1",1,"L","T1Trial","Outcome","402.2","left",1,"left","pie13.png",1,"f3.png","f6.png",55
"56","1",1,"L","T1Trial","Outcome","382","right",1,"right","pie0.png",0,"f0.png","f5.png",56
"57","1",1,"L","T1Trial","Outcome","393.4","right",1,"right","pie0.png",0,"f0.png","f5.png",57
"58","1",1,"L","T1Trial","Outcome","390.3","left",1,"left","pie23.png",0,"f0.png","f0.png",58
"59","1",1,"L","T1Trial","Outcome","354.7","right",1,"right","pie0.png",0,"f0.png","f5.png",59
"60","1",1,"L","T1Trial","Outcome","358.4","right",1,"right","pie0.png",0,"f0.png","f5.png",60
"61","1",1,"L","T1Trial","Outcome","412.3","left",1,"left","pie13.png",0,"f3.png","f7.png",61
"62","1",1,"L","T1Trial","Outcome","496.3","left",1,"left","pie0.png",0,"f0.png","f5.png",62
"63","1",1,"L","T1Trial","Outcome","393","right",1,"right","pie0.png",0,"f0.png","f5.png",63
"64","1",1,"L","T1Trial","Outcome","428.2","left",1,"left","pie13.png",0,"f3.png","f7.png",64
"65","1",1,"L","T1Trial","Outcome","463.1","left",1,"left","pie23.png",0,"f0.png","f0.png",65
"66","1",1,"L","T1Trial","Outcome","431.5","left",1,"left","pie23.png",1,"f0.png","f0.png",66
"67","1",1,"L","T1Trial","Outcome","474.2","right",1,"right","pie13.png",0,"f3.png","f7.png",67
"68","1",1,"L","T1Trial","Outcome","435.3","right",1,"right","pie23.png",1,"f0.png","f0.png",68
"69","1",1,"L","T1Trial","Outcome","397.4","left",1,"left","pie23.png",1,"f0.png","f0.png",69
"70","1",1,"L","T1Trial","Outcome","400.7","right",1,"right","pie0.png",0,"f0.png","f5.png",70
"71","1",1,"L","T1Trial","Outcome","434.9","left",1,"left","pie0.png",0,"f0.png","f5.png",71
"72","1",1,"L","T1Trial","Outcome","445.3","left",1,"left","pie13.png",1,"f3.png","f6.png",72
"73","1",1,"H","T1Trial","Outcome","373.4","right",1,"right","pie23.png",1,"f0.png","f0.png",73
"74","1",1,"H","T1Trial","Outcome","513.3","left",1,"left","pie1.png",1,"f1.png","f4.png",74
"75","1",1,"H","T1Trial","Outcome","336.4","right",1,"right","pie23.png",1,"f0.png","f0.png",75
"76","1",1,"H","T1Trial","Outcome","366.1","left",1,"left","pie1.png",1,"f1.png","f4.png",76
"77","1",1,"H","T1Trial","Outcome","395.2","right",1,"right","pie13.png",0,"f2.png","f7.png",77
"78","1",1,"H","T1Trial","Outcome","391.2","right",1,"right","pie1.png",1,"f1.png","f4.png",78
"79","1",1,"H","T1Trial","Outcome","395.3","right",1,"right","pie13.png",0,"f2.png","f7.png",79
"80","1",1,"H","T1Trial","Outcome","335.6","right",1,"right","pie23.png",1,"f0.png","f0.png",80
"81","1",1,"H","T1Trial","Outcome","757.1","left",1,"left","pie13.png",0,"f2.png","f7.png",81
"82","1",1,"H","T1Trial","Outcome","435.2","left",1,"left","pie13.png",1,"f2.png","f6.png",82
"83","1",1,"H","T1Trial","Outcome","332.7","right",1,"right","pie1.png",1,"f1.png","f4.png",83
"84","1",1,"H","T1Trial","Outcome","435","left",1,"left","pie13.png",1,"f2.png","f6.png",84
"85","1",1,"H","T1Trial","Outcome","397.4","left",1,"left","pie1.png",1,"f1.png","f4.png",85
"86","1",1,"H","T1Trial","Outcome","327.5","right",1,"right","pie1.png",1,"f1.png","f4.png",86
"87","1",1,"H","T1Trial","Outcome","390.9","left",1,"left","pie23.png",0,"f0.png","f0.png",87
"88","1",1,"H","T1Trial","Outcome","419.8","left",1,"left","pie13.png",0,"f2.png","f7.png",88
"89","1",1,"H","T1Trial","Outcome","365.6","right",1,"right","pie23.png",1,"f0.png","f0.png",89
"90","1",1,"H","T1Trial","Outcome","394","right",1,"right","pie13.png",1,"f2.png","f6.png",90
"91","1",1,"H","T1Trial","Outcome","390.4","right",1,"right","pie1.png",1,"f1.png","f4.png",91
"92","1",1,"H","T1Trial","Outcome","362.4","right",1,"right","pie1.png",1,"f1.png","f4.png",92
"93","1",1,"H","T1Trial","Outcome","439.8","left",1,"left","pie13.png",0,"f2.png","f7.png",93
"94","1",1,"H","T1Trial","Outcome","345.7","right",1,"right","pie23.png",1,"f0.png","f0.png",94
"95","1",1,"H","T1Trial","Outcome","359.3","left",1,"left","pie1.png",1,"f1.png","f4.png",95
"96","1",1,"H","T1Trial","Outcome","396.5","left",1,"left","pie1.png",1,"f1.png","f4.png",96
"97","1",1,"H","T1Trial","Outcome","568.1","left",1,"left","pie13.png",0,"f2.png","f7.png",97
"98","1",1,"H","T1Trial","Outcome","382.3","left",1,"left","pie23.png",1,"f0.png","f0.png",98
"99","1",1,"H","T1Trial","Outcome","353.5","right",1,"right","pie1.png",1,"f1.png","f4.png",99
"100","1",1,"H","T1Trial","Outcome","407.8","left",1,"left","pie1.png",1,"f1.png","f4.png",100
"101","1",1,"H","T1Trial","Outcome","411.1","left",1,"left","pie13.png",1,"f2.png","f6.png",101
"102","1",1,"H","T1Trial","Outcome","388.7","left",1,"left","pie23.png",1,"f0.png","f0.png",102
"103","1",1,"H","T1Trial","Outcome","393.3","right",1,"right","pie1.png",1,"f1.png","f4.png",103
"104","1",1,"H","T1Trial","Outcome","390.2","left",1,"left","pie13.png",0,"f2.png","f7.png",104
"105","1",1,"H","T1Trial","Outcome","433.8","left",1,"left","pie13.png",0,"f2.png","f7.png",105
"106","1",1,"H","T1Trial","Outcome","380.2","right",1,"right","pie23.png",1,"f0.png","f0.png",106
"107","1",1,"H","T1Trial","Outcome","431.8","left",1,"left","pie23.png",0,"f0.png","f0.png",107
"108","1",1,"H","T1Trial","Outcome","441.9","right",1,"right","pie13.png",0,"f2.png","f7.png",108
"109","1",1,"H","T1Trial","Outcome","356","left",1,"left","pie13.png",0,"f2.png","f7.png",109
"110","1",1,"H","T1Trial","Outcome","345.3","right",1,"right","pie23.png",1,"f0.png","f0.png",110
"111","1",1,"H","T1Trial","Outcome","424.1","right",1,"right","pie13.png",1,"f2.png","f6.png",111
"112","1",1,"H","T1Trial","Outcome","386.5","right",1,"right","pie23.png",0,"f0.png","f0.png",112
"113","1",1,"H","T1Trial","Outcome","382.7","right",1,"right","pie13.png",0,"f2.png","f7.png",113
"114","1",1,"H","T1Trial","Outcome","402.2","right",1,"right","pie13.png",1,"f2.png","f6.png",114
"115","1",1,"H","T1Trial","Outcome","406.4","left",1,"left","pie23.png",0,"f0.png","f0.png",115
"116","1",1,"H","T1Trial","Outcome","385.1","left",1,"left","pie23.png",1,"f0.png","f0.png",116
"117","1",1,"H","T1Trial","Outcome","397.2","left",1,"left","pie13.png",0,"f2.png","f7.png",117
"118","1",1,"H","T1Trial","Outcome","457.1","left",1,"left","pie1.png",1,"f1.png","f4.png",118
"119","1",1,"H","T1Trial","Outcome","369.6","right",1,"right","pie13.png",1,"f2.png","f6.png",119
"120","1",1,"H","T1Trial","Outcome","390.2","left",1,"left","pie23.png",1,"f0.png","f0.png",120
"121","1",1,"H","T1Trial","Outcome","362.5","right",1,"right","pie1.png",1,"f1.png","f4.png",121
"122","1",1,"H","T1Trial","Outcome","487.5","right",1,"right","pie13.png",0,"f2.png","f7.png",122
"123","1",1,"H","T1Trial","Outcome","400.3","right",1,"right","pie23.png",0,"f0.png","f0.png",123
"124","1",1,"H","T1Trial","Outcome","395.5","right",1,"right","pie1.png",1,"f1.png","f4.png",124
"125","1",1,"H","T1Trial","Outcome","374.6","right",1,"right","pie23.png",1,"f0.png","f0.png",125
"126","1",1,"H","T1Trial","Outcome","396.3","left",1,"left","pie23.png",1,"f0.png","f0.png",126
"127","1",1,"H","T1Trial","Outcome","320.6","right",1,"right","pie23.png",1,"f0.png","f0.png",127
"128","1",1,"H","T1Trial","Outcome","415","right",1,"right","pie13.png",1,"f2.png","f6.png",128
"129","1",1,"H","T1Trial","Outcome","424.7","left",1,"left","pie1.png",1,"f1.png","f4.png",129
"130","1",1,"H","T1Trial","Outcome","411.7","left",1,"left","pie23.png",1,"f0.png","f0.png",130
"131","1",1,"H","T1Trial","Outcome","431.5","left",1,"left","pie1.png",1,"f1.png","f4.png",131
"132","1",1,"H","T1Trial","Outcome","496.8","left",1,"left","pie13.png",0,"f2.png","f7.png",132
"133","1",1,"H","T1Trial","Outcome","384.6","right",1,"right","pie13.png",0,"f2.png","f7.png",133
"134","1",1,"H","T1Trial","Outcome","380.2","left",1,"left","pie1.png",1,"f1.png","f4.png",134
"135","1",1,"H","T1Trial","Outcome","464.8","right",1,"right","pie23.png",1,"f0.png","f0.png",135
"136","1",1,"H","T1Trial","Outcome","449.6","left",1,"left","pie23.png",0,"f0.png","f0.png",136
"137","1",1,"H","T1Trial","Outcome","370.3","right",1,"right","pie1.png",1,"f1.png","f4.png",137
"138","1",1,"H","T1Trial","Outcome","463.7","left",1,"left","pie13.png",0,"f2.png","f7.png",138
"139","1",1,"H","T1Trial","Outcome","448.2","left",1,"left","pie1.png",1,"f1.png","f4.png",139
"140","1",1,"H","T1Trial","Outcome","401.3","right",1,"right","pie1.png",1,"f1.png","f4.png",140
"141","1",1,"H","T1Trial","Outcome","483.8","right",1,"right","pie23.png",0,"f0.png","f0.png",141
"142","1",1,"H","T1Trial","Outcome","421.3","left",1,"left","pie1.png",1,"f1.png","f4.png",142
"143","1",1,"H","T1Trial","Outcome","359.9","right",1,"right","pie23.png",0,"f0.png","f0.png",143
"144","1",1,"H","T1Trial","Outcome","444.5","left",1,"left","pie1.png",1,"f1.png","f4.png",144
"145","2",1,"H","T1Trial","Outcome","450.9","right",1,"right","pie23.png",0,"f0.png","f0.png",1
"146","2",1,"H","T1Trial","Outcome","423.1","right",1,"right","pie23.png",1,"f0.png","f0.png",2
"147","2",1,"H","T1Trial","Outcome","572.7","left",1,"left","pie13.png",0,"f2.png","f6.png",3
"148","2",1,"H","T1Trial","Outcome","457.9","left",1,"left","pie1.png",1,"f1.png","f4.png",4
"149","2",1,"H","T1Trial","Outcome","539.1","right",1,"right","pie1.png",1,"f1.png","f4.png",5
"150","2",1,"H","T1Trial","Outcome","569.3","left",1,"left","pie1.png",1,"f1.png","f4.png",6
"151","2",1,"H","T1Trial","Outcome","493.3","right",1,"right","pie1.png",1,"f1.png","f4.png",7
"152","2",1,"H","T1Trial","Outcome","613.8","right",1,"right","pie23.png",0,"f0.png","f0.png",8
"153","2",1,"H","T1Trial","Outcome","450.1","left",1,"left","pie1.png",1,"f1.png","f4.png",9
"154","2",1,"H","T1Trial","Outcome","692.9","right",1,"right","pie13.png",0,"f2.png","f6.png",10
"155","2",1,"H","T1Trial","Outcome","711.8","left",1,"left","pie13.png",0,"f2.png","f6.png",11
"156","2",1,"H","T1Trial","Outcome","665.2","left",1,"left","pie13.png",0,"f2.png","f6.png",12
"157","2",1,"H","T1Trial","Outcome","618.2","right",1,"right","pie23.png",0,"f0.png","f0.png",13
"158","2",1,"H","T1Trial","Outcome","578.6","left",1,"left","pie23.png",0,"f0.png","f0.png",14
"159","2",1,"H","T1Trial","Outcome","535","right",1,"right","pie1.png",1,"f1.png","f4.png",15
"160","2",1,"H","T1Trial","Outcome","586.3","right",1,"right","pie1.png",1,"f1.png","f4.png",16
"161","2",1,"H","T1Trial","Outcome","536","right",1,"right","pie13.png",0,"f2.png","f6.png",17
"162","2",1,"H","T1Trial","Outcome","550.1","right",1,"right","pie1.png",1,"f1.png","f4.png",18
"163","2",1,"H","T1Trial","Outcome","482.6","right",1,"right","pie23.png",1,"f0.png","f0.png",19
"164","2",1,"H","T1Trial","Outcome","840","right",1,"right","pie23.png",0,"f0.png","f0.png",20
"165","2",1,"H","T1Trial","Outcome","465.4","right",1,"right","pie1.png",1,"f1.png","f4.png",21
"166","2",1,"H","T1Trial","Outcome","474.6","left",1,"left","pie1.png",1,"f1.png","f4.png",22
"167","2",1,"H","T1Trial","Outcome","659.5","right",1,"right","pie23.png",1,"f0.png","f0.png",23
"168","2",1,"H","T1Trial","Outcome","731.6","right",1,"right","pie23.png",1,"f0.png","f0.png",24
"169","2",1,"H","T1Trial","Outcome","577.1","right",1,"right","pie23.png",0,"f0.png","f0.png",25
"170","2",1,"H","T1Trial","Outcome","557.7","right",1,"right","pie13.png",1,"f2.png","f7.png",26
"171","2",1,"H","T1Trial","Outcome","530.3","left",1,"left","pie1.png",1,"f1.png","f4.png",27
"172","2",1,"H","T1Trial","Outcome","912.1","left",1,"left","pie23.png",1,"f0.png","f0.png",28
"173","2",1,"H","T1Trial","Outcome","566.3","left",1,"left","pie1.png",1,"f1.png","f4.png",29
"174","2",1,"H","T1Trial","Outcome","548.3","right",1,"right","pie13.png",1,"f2.png","f7.png",30
"175","2",1,"H","T1Trial","Outcome","438.5","left",1,"left","pie1.png",1,"f1.png","f4.png",31
"176","2",1,"H","T1Trial","Outcome","706.6","right",1,"right","pie23.png",1,"f0.png","f0.png",32
"177","2",1,"H","T1Trial","Outcome","847.3","right",1,"right","pie23.png",1,"f0.png","f0.png",33
"178","2",1,"H","T1Trial","Outcome","400.5","right",1,"right","pie13.png",1,"f2.png","f7.png",34
"179","2",1,"H","T1Trial","Outcome","679.4","right",1,"right","pie23.png",1,"f0.png","f0.png",35
"180","2",1,"H","T1Trial","Outcome","603.4","right",1,"right","pie23.png",0,"f0.png","f0.png",36
"181","2",1,"H","T1Trial","Outcome","441.6","right",1,"right","pie23.png",1,"f0.png","f0.png",37
"182","2",1,"H","T1Trial","Outcome","547.2","left",1,"left","pie23.png",1,"f0.png","f0.png",38
"183","2",1,"H","T1Trial","Outcome","378.8","right",1,"right","pie1.png",1,"f1.png","f4.png",39
"184","2",1,"H","T1Trial","Outcome","456.4","right",1,"right","pie23.png",1,"f0.png","f0.png",40
"185","2",1,"H","T1Trial","Outcome","802.9","right",1,"right","pie13.png",0,"f2.png","f6.png",41
"186","2",1,"H","T1Trial","Outcome","679.8","right",1,"right","pie13.png",0,"f2.png","f6.png",42
"187","2",1,"H","T1Trial","Outcome","653.7","left",1,"left","pie1.png",1,"f1.png","f4.png",43
"188","2",1,"H","T1Trial","Outcome","624.7","left",1,"left","pie1.png",1,"f1.png","f4.png",44
"189","2",1,"H","T1Trial","Outcome","598.4","right",1,"right","pie1.png",1,"f1.png","f4.png",45
"190","2",1,"H","T1Trial","Outcome","638.2","right",1,"right","pie23.png",1,"f0.png","f0.png",46
"191","2",1,"H","T1Trial","Outcome","356.6","right",1,"right","pie13.png",0,"f2.png","f6.png",47
"192","2",1,"H","T1Trial","Outcome","646.6","right",1,"right","pie13.png",0,"f2.png","f6.png",48
"193","2",1,"H","T1Trial","Outcome","504.6","left",1,"left","pie13.png",1,"f2.png","f7.png",49
"194","2",1,"H","T1Trial","Outcome","538.1","left",1,"left","pie13.png",0,"f2.png","f6.png",50
"195","2",1,"H","T1Trial","Outcome","697.6","left",1,"left","pie13.png",0,"f2.png","f6.png",51
"196","2",1,"H","T1Trial","Outcome","576.4","right",1,"right","pie13.png",1,"f2.png","f7.png",52
"197","2",1,"H","T1Trial","Outcome","810.6","right",1,"right","pie13.png",1,"f2.png","f7.png",53
"198","2",1,"H","T1Trial","Outcome","445.8","left",1,"left","pie1.png",1,"f1.png","f4.png",54
"199","2",1,"H","T1Trial","Outcome","594.7","left",1,"left","pie13.png",0,"f2.png","f6.png",55
"200","2",1,"H","T1Trial","Outcome","479","right",1,"right","pie23.png",0,"f0.png","f0.png",56
"201","2",1,"H","T1Trial","Outcome","534.9","left",1,"left","pie1.png",1,"f1.png","f4.png",57
"202","2",1,"H","T1Trial","Outcome","471.2","left",1,"left","pie13.png",1,"f2.png","f7.png",58
"203","2",1,"H","T1Trial","Outcome","594.6","left",1,"left","pie1.png",1,"f1.png","f4.png",59
"204","2",1,"H","T1Trial","Outcome","423.2","right",1,"right","pie1.png",1,"f1.png","f4.png",60
"205","2",1,"H","T1Trial","Outcome","599.7","right",1,"right","pie13.png",0,"f2.png","f6.png",61
"206","2",1,"H","T1Trial","Outcome","493.3","left",1,"left","pie23.png",1,"f0.png","f0.png",62
"207","2",1,"H","T1Trial","Outcome","670","right",1,"right","pie23.png",1,"f0.png","f0.png",63
"208","2",1,"H","T1Trial","Outcome","531.7","left",1,"left","pie1.png",1,"f1.png","f4.png",64
"209","2",1,"H","T1Trial","Outcome","545.8","right",1,"right","pie23.png",1,"f0.png","f0.png",65
"210","2",1,"H","T1Trial","Outcome","677.4","left",1,"left","pie1.png",1,"f1.png","f4.png",66
"211","2",1,"H","T1Trial","Outcome","630","right",1,"right","pie1.png",1,"f1.png","f4.png",67
"212","2",1,"H","T1Trial","Outcome","723","left",1,"left","pie13.png",0,"f2.png","f6.png",68
"213","2",1,"H","T1Trial","Outcome","660","right",1,"right","pie13.png",1,"f2.png","f7.png",69
"214","2",1,"H","T1Trial","Outcome","635.9","right",1,"right","pie23.png",1,"f0.png","f0.png",70
"215","2",1,"H","T1Trial","Outcome","760.6","left",1,"left","pie13.png",0,"f2.png","f6.png",71
"216","2",1,"H","T1Trial","Outcome","615.2","right",1,"right","pie13.png",0,"f2.png","f6.png",72
"217","2",1,"L","T1Trial","Outcome","435.3","right",1,"right","pie13.png",1,"f3.png","f7.png",73
"218","2",1,"L","T1Trial","Outcome","1341.5","right",1,"right","pie13.png",0,"f3.png","f6.png",74
"219","2",1,"L","T1Trial","Outcome","478.7","left",1,"left","pie0.png",0,"f0.png","f5.png",75
"220","2",1,"L","T1Trial","Outcome","791.5","right",1,"right","pie23.png",0,"f0.png","f0.png",76
"221","2",1,"L","T1Trial","Outcome","597.6","left",1,"left","pie23.png",1,"f0.png","f0.png",77
"222","2",1,"L","T1Trial","Outcome","576.5","right",1,"right","pie13.png",0,"f3.png","f6.png",78
"223","2",1,"L","T1Trial","Outcome","742","right",1,"right","pie23.png",1,"f0.png","f0.png",79
"224","2",1,"L","T1Trial","Outcome","672.8","left",1,"left","pie23.png",0,"f0.png","f0.png",80
"225","2",1,"L","T1Trial","Outcome","764.3","right",1,"right","pie0.png",0,"f0.png","f5.png",81
"226","2",1,"L","T1Trial","Outcome","544.7","right",0,"left","pie0.png",0,"f0.png","f5.png",82
"227","2",1,"L","T1Trial","Outcome","534.8","right",1,"right","pie0.png",0,"f0.png","f5.png",83
"228","2",1,"L","T1Trial","Outcome","719.7","right",1,"right","pie0.png",0,"f0.png","f5.png",84
"229","2",1,"L","T1Trial","Outcome","698.7","right",1,"right","pie23.png",1,"f0.png","f0.png",85
"230","2",1,"L","T1Trial","Outcome","684.5","left",1,"left","pie0.png",0,"f0.png","f5.png",86
"231","2",1,"L","T1Trial","Outcome","879.4","left",1,"left","pie23.png",1,"f0.png","f0.png",87
"232","2",1,"L","T1Trial","Outcome","615.2","left",1,"left","pie23.png",0,"f0.png","f0.png",88
"233","2",1,"L","T1Trial","Outcome","649.2","left",1,"left","pie23.png",1,"f0.png","f0.png",89
"234","2",1,"L","T1Trial","Outcome","1165.8","left",1,"left","pie13.png",0,"f3.png","f6.png",90
"235","2",1,"L","T1Trial","Outcome","762.6","left",1,"left","pie23.png",1,"f0.png","f0.png",91
"236","2",1,"L","T1Trial","Outcome","475.3","right",1,"right","pie13.png",1,"f3.png","f7.png",92
"237","2",1,"L","T1Trial","Outcome","375.2","right",1,"right","pie0.png",0,"f0.png","f5.png",93
"238","2",1,"L","T1Trial","Outcome","408.5","left",1,"left","pie0.png",0,"f0.png","f5.png",94
"239","2",1,"L","T1Trial","Outcome","508.6","right",1,"right","pie13.png",0,"f3.png","f6.png",95
"240","2",1,"L","T1Trial","Outcome","349.1","left",1,"left","pie0.png",0,"f0.png","f5.png",96
"241","2",1,"L","T1Trial","Outcome","528.8","right",1,"right","pie23.png",0,"f0.png","f0.png",97
"242","2",1,"L","T1Trial","Outcome","658.1","left",1,"left","pie13.png",0,"f3.png","f6.png",98
"243","2",1,"L","T1Trial","Outcome","397.6","right",1,"right","pie0.png",0,"f0.png","f5.png",99
"244","2",1,"L","T1Trial","Outcome","580.4","right",1,"right","pie23.png",1,"f0.png","f0.png",100
"245","2",1,"L","T1Trial","Outcome","774.8","right",1,"right","pie13.png",1,"f3.png","f7.png",101
"246","2",1,"L","T1Trial","Outcome","754.8","left",1,"left","pie13.png",0,"f3.png","f6.png",102
"247","2",1,"L","T1Trial","Outcome","534.2","right",1,"right","pie23.png",0,"f0.png","f0.png",103
"248","2",1,"L","T1Trial","Outcome","797.4","left",1,"left","pie13.png",0,"f3.png","f6.png",104
"249","2",1,"L","T1Trial","Outcome","584.6","left",1,"left","pie13.png",1,"f3.png","f7.png",105
"250","2",1,"L","T1Trial","Outcome","738.7","right",1,"right","pie23.png",1,"f0.png","f0.png",106
"251","2",1,"L","T1Trial","Outcome","718","left",1,"left","pie13.png",1,"f3.png","f7.png",107
"252","2",1,"L","T1Trial","Outcome","736.6","right",1,"right","pie13.png",0,"f3.png","f6.png",108
"253","2",1,"L","T1Trial","Outcome","556.7","left",1,"left","pie0.png",0,"f0.png","f5.png",109
"254","2",1,"L","T1Trial","Outcome","609","left",1,"left","pie23.png",1,"f0.png","f0.png",110
"255","2",1,"L","T1Trial","Outcome","650.8","right",1,"right","pie0.png",0,"f0.png","f5.png",111
"256","2",1,"L","T1Trial","Outcome","635.8","left",1,"left","pie23.png",0,"f0.png","f0.png",112
"257","2",1,"L","T1Trial","Outcome","534.4","left",1,"left","pie23.png",1,"f0.png","f0.png",113
"258","2",1,"L","T1Trial","Outcome","465.2","right",1,"right","pie23.png",0,"f0.png","f0.png",114
"259","2",1,"L","T1Trial","Outcome","611.5","right",0,"left","pie0.png",0,"f0.png","f5.png",115
"260","2",1,"L","T1Trial","Outcome","776.1","left",1,"left","pie13.png",0,"f3.png","f6.png",116
"261","2",1,"L","T1Trial","Outcome","818.5","right",1,"right","pie13.png",0,"f3.png","f6.png",117
"262","2",1,"L","T1Trial","Outcome","881.7","left",1,"left","pie23.png",0,"f0.png","f0.png",118
"263","2",1,"L","T1Trial","Outcome","552.3","left",1,"left","pie13.png",0,"f3.png","f6.png",119
"264","2",1,"L","T1Trial","Outcome","504.6","right",1,"right","pie23.png",1,"f0.png","f0.png",120
"265","2",1,"L","T1Trial","Outcome","663","right",1,"right","pie23.png",1,"f0.png","f0.png",121
"266","2",1,"L","T1Trial","Outcome","511.6","left",1,"left","pie23.png",1,"f0.png","f0.png",122
"267","2",1,"L","T1Trial","Outcome","645.3","left",1,"left","pie0.png",0,"f0.png","f5.png",123
"268","2",1,"L","T1Trial","Outcome","578.4","right",1,"right","pie13.png",0,"f3.png","f6.png",124
"269","2",1,"L","T1Trial","Outcome","545.9","left",1,"left","pie23.png",1,"f0.png","f0.png",125
"270","2",1,"L","T1Trial","Outcome","632.2","left",1,"left","pie13.png",1,"f3.png","f7.png",126
"271","2",1,"L","T1Trial","Outcome","641.5","right",1,"right","pie13.png",0,"f3.png","f6.png",127
"272","2",1,"L","T1Trial","Outcome","1642.5","right",1,"right","pie0.png",0,"f0.png","f5.png",128
"273","2",1,"L","T1Trial","Outcome","971.2","right",1,"right","pie0.png",0,"f0.png","f5.png",129
"274","2",1,"L","T1Trial","Outcome","892.9","right",1,"right","pie13.png",1,"f3.png","f7.png",130
"275","2",1,"L","T1Trial","Outcome","762","right",1,"right","pie0.png",0,"f0.png","f5.png",131
"276","2",1,"L","T1Trial","Outcome","817.9","left",1,"left","pie23.png",1,"f0.png","f0.png",132
"277","2",1,"L","T1Trial","Outcome","760.8","right",1,"right","pie0.png",0,"f0.png","f5.png",133
"278","2",1,"L","T1Trial","Outcome","566.7","right",1,"right","pie0.png",0,"f0.png","f5.png",134
"279","2",1,"L","T1Trial","Outcome","620.8","right",1,"right","pie23.png",1,"f0.png","f0.png",135
"280","2",1,"L","T1Trial","Outcome","451.2","right",1,"right","pie0.png",0,"f0.png","f5.png",136
"281","2",1,"L","T1Trial","Outcome","428.3","left",1,"left","pie0.png",0,"f0.png","f5.png",137
"282","2",1,"L","T1Trial","Outcome","569.8","left",1,"left","pie0.png",0,"f0.png","f5.png",138
"283","2",1,"L","T1Trial","Outcome","756.7","right",1,"right","pie13.png",1,"f3.png","f7.png",139
"284","2",1,"L","T1Trial","Outcome","864","right",1,"right","pie13.png",0,"f3.png","f6.png",140
"285","2",1,"L","T1Trial","Outcome","591.6","right",1,"right","pie13.png",0,"f3.png","f6.png",141
"286","2",1,"L","T1Trial","Outcome","1008.5","left",1,"left","pie13.png",0,"f3.png","f6.png",142
"287","2",1,"L","T1Trial","Outcome","598.2","right",1,"right","pie0.png",0,"f0.png","f5.png",143
"288","2",1,"L","T1Trial","Outcome","601.3","right",1,"right","pie0.png",0,"f0.png","f5.png",144
"289","3",1,"L","T1Trial","Outcome","837.7","right",1,"right","pie13.png",1,"f1.png","f5.png",1
"290","3",1,"L","T1Trial","Outcome","704","left",1,"left","pie13.png",0,"f1.png","f4.png",2
"291","3",1,"L","T1Trial","Outcome","629.1","left",1,"left","pie23.png",1,"f0.png","f0.png",3
"292","3",1,"L","T1Trial","Outcome","557.4","left",1,"left","pie23.png",1,"f0.png","f0.png",4
"293","3",1,"L","T1Trial","Outcome","522.9","left",1,"left","pie0.png",0,"f0.png","f7.png",5
"294","3",1,"L","T1Trial","Outcome","552.4","right",1,"right","pie0.png",0,"f0.png","f7.png",6
"295","3",1,"L","T1Trial","Outcome","667","left",1,"left","pie23.png",1,"f0.png","f0.png",7
"296","3",1,"L","T1Trial","Outcome","511.9","right",1,"right","pie13.png",0,"f1.png","f4.png",8
"297","3",1,"L","T1Trial","Outcome","633.5","left",1,"left","pie23.png",0,"f0.png","f0.png",9
"298","3",1,"L","T1Trial","Outcome","517","right",1,"right","pie0.png",0,"f0.png","f7.png",10
"299","3",1,"L","T1Trial","Outcome","650.1","left",1,"left","pie13.png",1,"f1.png","f5.png",11
"300","3",1,"L","T1Trial","Outcome","580.5","left",1,"left","pie23.png",1,"f0.png","f0.png",12
"301","3",1,"L","T1Trial","Outcome","653.6","right",1,"right","pie13.png",0,"f1.png","f4.png",13
"302","3",1,"L","T1Trial","Outcome","456","left",1,"left","pie0.png",0,"f0.png","f7.png",14
"303","3",1,"L","T1Trial","Outcome","627.7","left",1,"left","pie13.png",0,"f1.png","f4.png",15
"304","3",1,"L","T1Trial","Outcome","520.5","left",1,"left","pie23.png",1,"f0.png","f0.png",16
"305","3",1,"L","T1Trial","Outcome","545.4","left",1,"left","pie23.png",0,"f0.png","f0.png",17
"306","3",1,"L","T1Trial","Outcome","580.9","left",1,"left","pie13.png",0,"f1.png","f4.png",18
"307","3",1,"L","T1Trial","Outcome","538","left",1,"left","pie13.png",1,"f1.png","f5.png",19
"308","3",1,"L","T1Trial","Outcome","654.2","right",1,"right","pie13.png",0,"f1.png","f4.png",20
"309","3",1,"L","T1Trial","Outcome","580.9","left",1,"left","pie0.png",0,"f0.png","f7.png",21
"310","3",1,"L","T1Trial","Outcome","473.3","left",1,"left","pie13.png",0,"f1.png","f4.png",22
"311","3",1,"L","T1Trial","Outcome","535.6","right",1,"right","pie13.png",0,"f1.png","f4.png",23
"312","3",1,"L","T1Trial","Outcome","455.3","right",1,"right","pie0.png",0,"f0.png","f7.png",24
"313","3",1,"L","T1Trial","Outcome","583.6","right",1,"right","pie0.png",0,"f0.png","f7.png",25
"314","3",1,"L","T1Trial","Outcome","546.3","left",1,"left","pie23.png",1,"f0.png","f0.png",26
"315","3",1,"L","T1Trial","Outcome","621.8","right",1,"right","pie23.png",1,"f0.png","f0.png",27
"316","3",1,"L","T1Trial","Outcome","582.6","left",1,"left","pie23.png",1,"f0.png","f0.png",28
"317","3",1,"L","T1Trial","Outcome","578.7","right",1,"right","pie23.png",1,"f0.png","f0.png",29
"318","3",1,"L","T1Trial","Outcome","634.1","left",1,"left","pie23.png",1,"f0.png","f0.png",30
"319","3",1,"L","T1Trial","Outcome","679.3","left",1,"left","pie0.png",0,"f0.png","f7.png",31
"320","3",1,"L","T1Trial","Outcome","645.2","right",1,"right","pie0.png",0,"f0.png","f7.png",32
"321","3",1,"L","T1Trial","Outcome","665.8","right",1,"right","pie0.png",0,"f0.png","f7.png",33
"322","3",1,"L","T1Trial","Outcome","570.4","right",1,"right","pie0.png",0,"f0.png","f7.png",34
"323","3",1,"L","T1Trial","Outcome","544.6","left",1,"left","pie23.png",0,"f0.png","f0.png",35
"324","3",1,"L","T1Trial","Outcome","546.8","left",1,"left","pie0.png",0,"f0.png","f7.png",36
"325","3",1,"L","T1Trial","Outcome","505.7","left",1,"left","pie0.png",0,"f0.png","f7.png",37
"326","3",1,"L","T1Trial","Outcome","533","left",1,"left","pie13.png",0,"f1.png","f4.png",38
"327","3",1,"L","T1Trial","Outcome","520.9","left",1,"left","pie0.png",0,"f0.png","f7.png",39
"328","3",1,"L","T1Trial","Outcome","641.9","left",1,"left","pie23.png",1,"f0.png","f0.png",40
"329","3",1,"L","T1Trial","Outcome","479","right",1,"right","pie23.png",0,"f0.png","f0.png",41
"330","3",1,"L","T1Trial","Outcome","509.1","right",1,"right","pie0.png",0,"f0.png","f7.png",42
"331","3",1,"L","T1Trial","Outcome","552.4","left",1,"left","pie13.png",0,"f1.png","f4.png",43
"332","3",1,"L","T1Trial","Outcome","544.6","left",1,"left","pie13.png",0,"f1.png","f4.png",44
"333","3",1,"L","T1Trial","Outcome","626.2","left",1,"left","pie13.png",1,"f1.png","f5.png",45
"334","3",1,"L","T1Trial","Outcome","504.3","right",1,"right","pie0.png",0,"f0.png","f7.png",46
"335","3",1,"L","T1Trial","Outcome","624.6","left",1,"left","pie23.png",0,"f0.png","f0.png",47
"336","3",1,"L","T1Trial","Outcome","612.4","right",1,"right","pie0.png",0,"f0.png","f7.png",48
"337","3",1,"L","T1Trial","Outcome","602.5","left",1,"left","pie23.png",1,"f0.png","f0.png",49
"338","3",1,"L","T1Trial","Outcome","499.9","left",1,"left","pie23.png",1,"f0.png","f0.png",50
"339","3",1,"L","T1Trial","Outcome","545","left",1,"left","pie0.png",0,"f0.png","f7.png",51
"340","3",1,"L","T1Trial","Outcome","566.8","right",1,"right","pie13.png",1,"f1.png","f5.png",52
"341","3",1,"L","T1Trial","Outcome","492.1","left",1,"left","pie13.png",0,"f1.png","f4.png",53
"342","3",1,"L","T1Trial","Outcome","542.7","left",1,"left","pie13.png",0,"f1.png","f4.png",54
"343","3",1,"L","T1Trial","Outcome","516.8","right",1,"right","pie23.png",0,"f0.png","f0.png",55
"344","3",1,"L","T1Trial","Outcome","474.1","left",1,"left","pie0.png",0,"f0.png","f7.png",56
"345","3",1,"L","T1Trial","Outcome","534.6","left",1,"left","pie23.png",0,"f0.png","f0.png",57
"346","3",1,"L","T1Trial","Outcome","643.4","left",1,"left","pie23.png",1,"f0.png","f0.png",58
"347","3",1,"L","T1Trial","Outcome","619.4","right",1,"right","pie23.png",1,"f0.png","f0.png",59
"348","3",1,"L","T1Trial","Outcome","562.4","left",1,"left","pie0.png",0,"f0.png","f7.png",60
"349","3",1,"L","T1Trial","Outcome","586.4","left",1,"left","pie23.png",1,"f0.png","f0.png",61
"350","3",1,"L","T1Trial","Outcome","485","left",1,"left","pie0.png",0,"f0.png","f7.png",62
"351","3",1,"L","T1Trial","Outcome","487.6","left",1,"left","pie0.png",0,"f0.png","f7.png",63
"352","3",1,"L","T1Trial","Outcome","518.9","left",1,"left","pie13.png",1,"f1.png","f5.png",64
"353","3",1,"L","T1Trial","Outcome","516.3","left",1,"left","pie23.png",0,"f0.png","f0.png",65
"354","3",1,"L","T1Trial","Outcome","685.6","right",1,"right","pie13.png",1,"f1.png","f5.png",66
"355","3",1,"L","T1Trial","Outcome","655.9","right",1,"right","pie13.png",0,"f1.png","f4.png",67
"356","3",1,"L","T1Trial","Outcome","530","left",1,"left","pie0.png",0,"f0.png","f7.png",68
"357","3",1,"L","T1Trial","Outcome","618.5","left",1,"left","pie0.png",0,"f0.png","f7.png",69
"358","3",1,"L","T1Trial","Outcome","595.9","right",1,"right","pie13.png",1,"f1.png","f5.png",70
"359","3",1,"L","T1Trial","Outcome","614.2","right",1,"right","pie13.png",0,"f1.png","f4.png",71
"360","3",1,"L","T1Trial","Outcome","631.9","left",1,"left","pie13.png",0,"f1.png","f4.png",72
"361","3",1,"H","T1Trial","Outcome","746.1","left",1,"left","pie1.png",1,"f2.png","f6.png",73
"362","3",1,"H","T1Trial","Outcome","542.6","left",1,"left","pie23.png",1,"f0.png","f0.png",74
"363","3",1,"H","T1Trial","Outcome","656.7","right",1,"right","pie13.png",0,"f3.png","f4.png",75
"364","3",1,"H","T1Trial","Outcome","592.4","right",1,"right","pie23.png",1,"f0.png","f0.png",76
"365","3",1,"H","T1Trial","Outcome","518","left",1,"left","pie23.png",1,"f0.png","f0.png",77
"366","3",1,"H","T1Trial","Outcome","582.3","right",1,"right","pie1.png",1,"f2.png","f6.png",78
"367","3",1,"H","T1Trial","Outcome","520.2","left",1,"left","pie13.png",1,"f3.png","f5.png",79
"368","3",1,"H","T1Trial","Outcome","582.3","left",1,"left","pie23.png",0,"f0.png","f0.png",80
"369","3",1,"H","T1Trial","Outcome","510.7","left",1,"left","pie1.png",1,"f2.png","f6.png",81
"370","3",1,"H","T1Trial","Outcome","568.3","right",1,"right","pie13.png",1,"f3.png","f5.png",82
"371","3",1,"H","T1Trial","Outcome","590.4","right",1,"right","pie23.png",0,"f0.png","f0.png",83
"372","3",1,"H","T1Trial","Outcome","550.5","left",1,"left","pie1.png",1,"f2.png","f6.png",84
"373","3",1,"H","T1Trial","Outcome","576.3","left",1,"left","pie13.png",0,"f3.png","f4.png",85
"374","3",1,"H","T1Trial","Outcome","539.6","right",1,"right","pie13.png",0,"f3.png","f4.png",86
"375","3",1,"H","T1Trial","Outcome","561.7","left",1,"left","pie13.png",0,"f3.png","f4.png",87
"376","3",1,"H","T1Trial","Outcome","510.3","right",1,"right","pie23.png",1,"f0.png","f0.png",88
"377","3",1,"H","T1Trial","Outcome","506.6","right",1,"right","pie1.png",1,"f2.png","f6.png",89
"378","3",1,"H","T1Trial","Outcome","510.5","left",1,"left","pie13.png",1,"f3.png","f5.png",90
"379","3",1,"H","T1Trial","Outcome","434.4","left",1,"left","pie13.png",0,"f3.png","f4.png",91
"380","3",1,"H","T1Trial","Outcome","604.5","right",1,"right","pie23.png",1,"f0.png","f0.png",92
"381","3",1,"H","T1Trial","Outcome","528.5","right",1,"right","pie13.png",0,"f3.png","f4.png",93
"382","3",1,"H","T1Trial","Outcome","577.9","right",1,"right","pie1.png",1,"f2.png","f6.png",94
"383","3",1,"H","T1Trial","Outcome","483","left",1,"left","pie13.png",0,"f3.png","f4.png",95
"384","3",1,"H","T1Trial","Outcome","489.7","right",1,"right","pie23.png",0,"f0.png","f0.png",96
"385","3",1,"H","T1Trial","Outcome","669.1","right",1,"right","pie23.png",1,"f0.png","f0.png",97
"386","3",1,"H","T1Trial","Outcome","624.8","left",1,"left","pie23.png",1,"f0.png","f0.png",98
"387","3",1,"H","T1Trial","Outcome","547.5","left",1,"left","pie1.png",1,"f2.png","f6.png",99
"388","3",1,"H","T1Trial","Outcome","501.1","right",1,"right","pie13.png",1,"f3.png","f5.png",100
"389","3",1,"H","T1Trial","Outcome","588.4","left",1,"left","pie23.png",1,"f0.png","f0.png",101
"390","3",1,"H","T1Trial","Outcome","765.8","left",1,"left","pie13.png",0,"f3.png","f4.png",102
"391","3",1,"H","T1Trial","Outcome","585.1","right",1,"right","pie13.png",1,"f3.png","f5.png",103
"392","3",1,"H","T1Trial","Outcome","521.8","right",1,"right","pie13.png",0,"f3.png","f4.png",104
"393","3",1,"H","T1Trial","Outcome","529.4","right",1,"right","pie1.png",1,"f2.png","f6.png",105
"394","3",1,"H","T1Trial","Outcome","516","right",1,"right","pie23.png",1,"f0.png","f0.png",106
"395","3",1,"H","T1Trial","Outcome","493","right",1,"right","pie1.png",1,"f2.png","f6.png",107
"396","3",1,"H","T1Trial","Outcome","582.6","right",1,"right","pie1.png",1,"f2.png","f6.png",108
"397","3",1,"H","T1Trial","Outcome","517.7","right",1,"right","pie1.png",1,"f2.png","f6.png",109
"398","3",1,"H","T1Trial","Outcome","484.6","right",1,"right","pie1.png",1,"f2.png","f6.png",110
"399","3",1,"H","T1Trial","Outcome","513.1","left",1,"left","pie1.png",1,"f2.png","f6.png",111
"400","3",1,"H","T1Trial","Outcome","498.6","left",1,"left","pie1.png",1,"f2.png","f6.png",112
"401","3",1,"H","T1Trial","Outcome","470.5","left",1,"left","pie13.png",1,"f3.png","f5.png",113
"402","3",1,"H","T1Trial","Outcome","513.6","left",1,"left","pie13.png",0,"f3.png","f4.png",114
"403","3",1,"H","T1Trial","Outcome","740.7","right",1,"right","pie23.png",0,"f0.png","f0.png",115
"404","3",1,"H","T1Trial","Outcome","587.3","right",1,"right","pie23.png",1,"f0.png","f0.png",116
"405","3",1,"H","T1Trial","Outcome","530.2","left",1,"left","pie23.png",0,"f0.png","f0.png",117
"406","3",1,"H","T1Trial","Outcome","450.6","left",1,"left","pie23.png",1,"f0.png","f0.png",118
"407","3",1,"H","T1Trial","Outcome","475.8","left",1,"left","pie13.png",0,"f3.png","f4.png",119
"408","3",1,"H","T1Trial","Outcome","508.3","left",1,"left","pie13.png",0,"f3.png","f4.png",120
"409","3",1,"H","T1Trial","Outcome","468.6","left",1,"left","pie1.png",1,"f2.png","f6.png",121
"410","3",1,"H","T1Trial","Outcome","503.5","right",1,"right","pie23.png",1,"f0.png","f0.png",122
"411","3",1,"H","T1Trial","Outcome","569.1","right",1,"right","pie1.png",1,"f2.png","f6.png",123
"412","3",1,"H","T1Trial","Outcome","502.1","left",1,"left","pie1.png",1,"f2.png","f6.png",124
"413","3",1,"H","T1Trial","Outcome","435.6","left",1,"left","pie23.png",1,"f0.png","f0.png",125
"414","3",1,"H","T1Trial","Outcome","551.9","left",1,"left","pie13.png",0,"f3.png","f4.png",126
"415","3",1,"H","T1Trial","Outcome","677.3","right",1,"right","pie23.png",1,"f0.png","f0.png",127
"416","3",1,"H","T1Trial","Outcome","638.6","right",1,"right","pie23.png",0,"f0.png","f0.png",128
"417","3",1,"H","T1Trial","Outcome","661","left",1,"left","pie1.png",1,"f2.png","f6.png",129
"418","3",1,"H","T1Trial","Outcome","561.4","right",1,"right","pie23.png",0,"f0.png","f0.png",130
"419","3",1,"H","T1Trial","Outcome","662.9","right",1,"right","pie13.png",0,"f3.png","f4.png",131
"420","3",1,"H","T1Trial","Outcome","655.5","right",1,"right","pie13.png",0,"f3.png","f4.png",132
"421","3",1,"H","T1Trial","Outcome","785.2","right",1,"right","pie1.png",1,"f2.png","f6.png",133
"422","3",1,"H","T1Trial","Outcome","581.1","left",1,"left","pie1.png",1,"f2.png","f6.png",134
"423","3",1,"H","T1Trial","Outcome","578.8","left",1,"left","pie23.png",0,"f0.png","f0.png",135
"424","3",1,"H","T1Trial","Outcome","540.7","right",1,"right","pie23.png",1,"f0.png","f0.png",136
"425","3",1,"H","T1Trial","Outcome","536.9","left",1,"left","pie23.png",1,"f0.png","f0.png",137
"426","3",1,"H","T1Trial","Outcome","564.7","right",1,"right","pie1.png",1,"f2.png","f6.png",138
"427","3",1,"H","T1Trial","Outcome","528.8","left",1,"left","pie1.png",1,"f2.png","f6.png",139
"428","3",1,"H","T1Trial","Outcome","535.8","right",1,"right","pie13.png",0,"f3.png","f4.png",140
"429","3",1,"H","T1Trial","Outcome","590","left",1,"left","pie13.png",1,"f3.png","f5.png",141
"430","3",1,"H","T1Trial","Outcome","582","right",1,"right","pie1.png",1,"f2.png","f6.png",142
"431","3",1,"H","T1Trial","Outcome","537.5","right",1,"right","pie1.png",1,"f2.png","f6.png",143
"432","3",1,"H","T1Trial","Outcome","585.3","left",1,"left","pie13.png",1,"f3.png","f5.png",144
"433","4",1,"H","T1Trial","Outcome","527.8","left",1,"left","pie1.png",1,"f3.png","f4.png",1
"434","4",1,"H","T1Trial","Outcome","616.1","right",1,"right","pie13.png",1,"f1.png","f5.png",2
"435","4",1,"H","T1Trial","Outcome","540.1","right",1,"right","pie13.png",0,"f1.png","f6.png",3
"436","4",1,"H","T1Trial","Outcome","553.9","right",1,"right","pie13.png",1,"f1.png","f5.png",4
"437","4",1,"H","T1Trial","Outcome","560.2","right",1,"right","pie13.png",1,"f1.png","f5.png",5
"438","4",1,"H","T1Trial","Outcome","535.1","right",1,"right","pie1.png",1,"f3.png","f4.png",6
"439","4",1,"H","T1Trial","Outcome","664.9","right",1,"right","pie1.png",1,"f3.png","f4.png",7
"440","4",1,"H","T1Trial","Outcome","601.5","left",1,"left","pie1.png",1,"f3.png","f4.png",8
"441","4",1,"H","T1Trial","Outcome","746.4","left",1,"left","pie13.png",1,"f1.png","f5.png",9
"442","4",1,"H","T1Trial","Outcome","626.8","left",1,"left","pie1.png",1,"f3.png","f4.png",10
"443","4",1,"H","T1Trial","Outcome","688.2","left",1,"left","pie23.png",1,"f0.png","f0.png",11
"444","4",1,"H","T1Trial","Outcome","751.2","right",1,"right","pie23.png",0,"f0.png","f0.png",12
"445","4",1,"H","T1Trial","Outcome","705.9","right",1,"right","pie23.png",1,"f0.png","f0.png",13
"446","4",1,"H","T1Trial","Outcome","579.6","right",1,"right","pie1.png",1,"f3.png","f4.png",14
"447","4",1,"H","T1Trial","Outcome","648.7","right",1,"right","pie23.png",0,"f0.png","f0.png",15
"448","4",1,"H","T1Trial","Outcome","572.8","left",1,"left","pie23.png",0,"f0.png","f0.png",16
"449","4",1,"H","T1Trial","Outcome","623","right",1,"right","pie13.png",0,"f1.png","f6.png",17
"450","4",1,"H","T1Trial","Outcome","586.6","left",1,"left","pie13.png",1,"f1.png","f5.png",18
"451","4",1,"H","T1Trial","Outcome","598.3","left",1,"left","pie23.png",1,"f0.png","f0.png",19
"452","4",1,"H","T1Trial","Outcome","600.5","right",1,"right","pie1.png",1,"f3.png","f4.png",20
"453","4",1,"H","T1Trial","Outcome","514.2","right",1,"right","pie1.png",1,"f3.png","f4.png",21
"454","4",1,"H","T1Trial","Outcome","498.1","left",1,"left","pie1.png",1,"f3.png","f4.png",22
"455","4",1,"H","T1Trial","Outcome","663.2","right",1,"right","pie13.png",0,"f1.png","f6.png",23
"456","4",1,"H","T1Trial","Outcome","751.6","right",1,"right","pie23.png",0,"f0.png","f0.png",24
"457","4",1,"H","T1Trial","Outcome","511.8","right",1,"right","pie1.png",1,"f3.png","f4.png",25
"458","4",1,"H","T1Trial","Outcome","569.3","left",1,"left","pie13.png",1,"f1.png","f5.png",26
"459","4",1,"H","T1Trial","Outcome","618","left",1,"left","pie1.png",1,"f3.png","f4.png",27
"460","4",1,"H","T1Trial","Outcome","641.1","left",1,"left","pie1.png",1,"f3.png","f4.png",28
"461","4",1,"H","T1Trial","Outcome","603.4","left",1,"left","pie23.png",0,"f0.png","f0.png",29
"462","4",1,"H","T1Trial","Outcome","538.5","left",1,"left","pie13.png",1,"f1.png","f5.png",30
"463","4",1,"H","T1Trial","Outcome","605.3","right",1,"right","pie13.png",0,"f1.png","f6.png",31
"464","4",1,"H","T1Trial","Outcome","563.8","right",1,"right","pie23.png",1,"f0.png","f0.png",32
"465","4",1,"H","T1Trial","Outcome","735.8","left",1,"left","pie23.png",1,"f0.png","f0.png",33
"466","4",1,"H","T1Trial","Outcome","612.1","right",1,"right","pie23.png",1,"f0.png","f0.png",34
"467","4",1,"H","T1Trial","Outcome","486.4","right",1,"right","pie13.png",0,"f1.png","f6.png",35
"468","4",1,"H","T1Trial","Outcome","609.8","right",1,"right","pie13.png",1,"f1.png","f5.png",36
"469","4",1,"H","T1Trial","Outcome","586.4","left",1,"left","pie23.png",1,"f0.png","f0.png",37
"470","4",1,"H","T1Trial","Outcome","492.2","left",1,"left","pie13.png",0,"f1.png","f6.png",38
"471","4",1,"H","T1Trial","Outcome","593.7","left",1,"left","pie23.png",1,"f0.png","f0.png",39
"472","4",1,"H","T1Trial","Outcome","605.8","right",1,"right","pie23.png",0,"f0.png","f0.png",40
"473","4",1,"H","T1Trial","Outcome","563.6","left",1,"left","pie1.png",1,"f3.png","f4.png",41
"474","4",1,"H","T1Trial","Outcome","585.4","right",1,"right","pie13.png",0,"f1.png","f6.png",42
"475","4",1,"H","T1Trial","Outcome","586.6","left",1,"left","pie13.png",0,"f1.png","f6.png",43
"476","4",1,"H","T1Trial","Outcome","716.7","right",1,"right","pie13.png",0,"f1.png","f6.png",44
"477","4",1,"H","T1Trial","Outcome","600.6","left",1,"left","pie13.png",0,"f1.png","f6.png",45
"478","4",1,"H","T1Trial","Outcome","647.7","right",1,"right","pie1.png",1,"f3.png","f4.png",46
"479","4",1,"H","T1Trial","Outcome","602.9","right",1,"right","pie13.png",0,"f1.png","f6.png",47
"480","4",1,"H","T1Trial","Outcome","822.9","left",1,"left","pie1.png",1,"f3.png","f4.png",48
"481","4",1,"H","T1Trial","Outcome","558","right",1,"right","pie23.png",1,"f0.png","f0.png",49
"482","4",1,"H","T1Trial","Outcome","505.5","right",1,"right","pie1.png",1,"f3.png","f4.png",50
"483","4",1,"H","T1Trial","Outcome","607.8","right",1,"right","pie13.png",0,"f1.png","f6.png",51
"484","4",1,"H","T1Trial","Outcome","466.1","right",1,"right","pie1.png",1,"f3.png","f4.png",52
"485","4",1,"H","T1Trial","Outcome","541.2","left",1,"left","pie1.png",1,"f3.png","f4.png",53
"486","4",1,"H","T1Trial","Outcome","662.1","left",1,"left","pie23.png",0,"f0.png","f0.png",54
"487","4",1,"H","T1Trial","Outcome","561.4","right",1,"right","pie13.png",0,"f1.png","f6.png",55
"488","4",1,"H","T1Trial","Outcome","626.8","left",1,"left","pie23.png",0,"f0.png","f0.png",56
"489","4",1,"H","T1Trial","Outcome","532.4","right",1,"right","pie1.png",1,"f3.png","f4.png",57
"490","4",1,"H","T1Trial","Outcome","541.1","right",1,"right","pie23.png",1,"f0.png","f0.png",58
"491","4",1,"H","T1Trial","Outcome","599.3","right",1,"right","pie23.png",1,"f0.png","f0.png",59
"492","4",1,"H","T1Trial","Outcome","619.8","left",1,"left","pie1.png",1,"f3.png","f4.png",60
"493","4",1,"H","T1Trial","Outcome","668.5","right",1,"right","pie23.png",1,"f0.png","f0.png",61
"494","4",1,"H","T1Trial","Outcome","664.6","left",1,"left","pie1.png",1,"f3.png","f4.png",62
"495","4",1,"H","T1Trial","Outcome","704.3","right",1,"right","pie1.png",1,"f3.png","f4.png",63
"496","4",1,"H","T1Trial","Outcome","702.4","right",1,"right","pie23.png",1,"f0.png","f0.png",64
"497","4",1,"H","T1Trial","Outcome","634.9","right",1,"right","pie13.png",0,"f1.png","f6.png",65
"498","4",1,"H","T1Trial","Outcome","554.8","right",1,"right","pie23.png",1,"f0.png","f0.png",66
"499","4",1,"H","T1Trial","Outcome","626.2","left",1,"left","pie23.png",1,"f0.png","f0.png",67
"500","4",1,"H","T1Trial","Outcome","589.2","left",1,"left","pie23.png",1,"f0.png","f0.png",68
"501","4",1,"H","T1Trial","Outcome","622.4","right",1,"right","pie13.png",0,"f1.png","f6.png",69
"502","4",1,"H","T1Trial","Outcome","584.7","left",1,"left","pie1.png",1,"f3.png","f4.png",70
"503","4",1,"H","T1Trial","Outcome","626.9","right",1,"right","pie1.png",1,"f3.png","f4.png",71
"504","4",1,"H","T1Trial","Outcome","584.7","right",1,"right","pie13.png",0,"f1.png","f6.png",72
"505","4",1,"L","T1Trial","Outcome","436.1","left",1,"left","pie23.png",1,"f0.png","f0.png",73
"506","4",1,"L","T1Trial","Outcome","598.1","left",1,"left","pie13.png",1,"f2.png","f5.png",74
"507","4",1,"L","T1Trial","Outcome","568.3","right",1,"right","pie0.png",0,"f0.png","f7.png",75
"508","4",1,"L","T1Trial","Outcome","560.3","left",1,"left","pie0.png",0,"f0.png","f7.png",76
"509","4",1,"L","T1Trial","Outcome","572.4","right",1,"right","pie23.png",1,"f0.png","f0.png",77
"510","4",1,"L","T1Trial","Outcome","641.3","left",1,"left","pie13.png",0,"f2.png","f6.png",78
"511","4",1,"L","T1Trial","Outcome","594.4","right",1,"right","pie13.png",0,"f2.png","f6.png",79
"512","4",1,"L","T1Trial","Outcome","599.7","left",1,"left","pie23.png",0,"f0.png","f0.png",80
"513","4",1,"L","T1Trial","Outcome","645.4","right",1,"right","pie23.png",1,"f0.png","f0.png",81
"514","4",1,"L","T1Trial","Outcome","619.9","right",1,"right","pie13.png",0,"f2.png","f6.png",82
"515","4",1,"L","T1Trial","Outcome","613.5","left",1,"left","pie13.png",0,"f2.png","f6.png",83
"516","4",1,"L","T1Trial","Outcome","792.3","left",1,"left","pie23.png",0,"f0.png","f0.png",84
"517","4",1,"L","T1Trial","Outcome","553.1","right",1,"right","pie23.png",0,"f0.png","f0.png",85
"518","4",1,"L","T1Trial","Outcome","658.3","left",1,"left","pie13.png",0,"f2.png","f6.png",86
"519","4",1,"L","T1Trial","Outcome","611.4","left",1,"left","pie13.png",1,"f2.png","f5.png",87
"520","4",1,"L","T1Trial","Outcome","545.5","left",1,"left","pie0.png",0,"f0.png","f7.png",88
"521","4",1,"L","T1Trial","Outcome","517.4","left",1,"left","pie0.png",0,"f0.png","f7.png",89
"522","4",1,"L","T1Trial","Outcome","585.4","left",1,"left","pie23.png",1,"f0.png","f0.png",90
"523","4",1,"L","T1Trial","Outcome","555.6","left",1,"left","pie13.png",0,"f2.png","f6.png",91
"524","4",1,"L","T1Trial","Outcome","530","left",1,"left","pie13.png",0,"f2.png","f6.png",92
"525","4",1,"L","T1Trial","Outcome","508.7","right",1,"right","pie0.png",0,"f0.png","f7.png",93
"526","4",1,"L","T1Trial","Outcome","595","right",1,"right","pie23.png",1,"f0.png","f0.png",94
"527","4",1,"L","T1Trial","Outcome","555.7","left",1,"left","pie0.png",0,"f0.png","f7.png",95
"528","4",1,"L","T1Trial","Outcome","571.7","left",1,"left","pie13.png",0,"f2.png","f6.png",96
"529","4",1,"L","T1Trial","Outcome","511.6","right",1,"right","pie23.png",0,"f0.png","f0.png",97
"530","4",1,"L","T1Trial","Outcome","649.5","right",1,"right","pie0.png",0,"f0.png","f7.png",98
"531","4",1,"L","T1Trial","Outcome","584","right",1,"right","pie13.png",1,"f2.png","f5.png",99
"532","4",1,"L","T1Trial","Outcome","621.9","right",1,"right","pie0.png",0,"f0.png","f7.png",100
"533","4",1,"L","T1Trial","Outcome","576.5","left",1,"left","pie23.png",0,"f0.png","f0.png",101
"534","4",1,"L","T1Trial","Outcome","576.5","left",1,"left","pie23.png",1,"f0.png","f0.png",102
"535","4",1,"L","T1Trial","Outcome","677.7","right",1,"right","pie13.png",0,"f2.png","f6.png",103
"536","4",1,"L","T1Trial","Outcome","654.9","right",1,"right","pie0.png",0,"f0.png","f7.png",104
"537","4",1,"L","T1Trial","Outcome","605.3","left",1,"left","pie0.png",0,"f0.png","f7.png",105
"538","4",1,"L","T1Trial","Outcome","639.3","right",1,"right","pie0.png",0,"f0.png","f7.png",106
"539","4",1,"L","T1Trial","Outcome","568.4","left",1,"left","pie13.png",1,"f2.png","f5.png",107
"540","4",1,"L","T1Trial","Outcome","535.7","left",1,"left","pie23.png",1,"f0.png","f0.png",108
"541","4",1,"L","T1Trial","Outcome","621.2","left",1,"left","pie23.png",1,"f0.png","f0.png",109
"542","4",1,"L","T1Trial","Outcome","580.9","right",1,"right","pie0.png",0,"f0.png","f7.png",110
"543","4",1,"L","T1Trial","Outcome","681.7","right",1,"right","pie13.png",0,"f2.png","f6.png",111
"544","4",1,"L","T1Trial","Outcome","1146.8","left",1,"left","pie13.png",1,"f2.png","f5.png",112
"545","4",1,"L","T1Trial","Outcome","601.3","left",1,"left","pie0.png",0,"f0.png","f7.png",113
"546","4",1,"L","T1Trial","Outcome","723.3","right",1,"right","pie13.png",0,"f2.png","f6.png",114
"547","4",1,"L","T1Trial","Outcome","536.8","left",1,"left","pie23.png",1,"f0.png","f0.png",115
"548","4",1,"L","T1Trial","Outcome","644.1","right",1,"right","pie0.png",0,"f0.png","f7.png",116
"549","4",1,"L","T1Trial","Outcome","526.3","right",1,"right","pie0.png",0,"f0.png","f7.png",117
"550","4",1,"L","T1Trial","Outcome","616.4","right",1,"right","pie23.png",1,"f0.png","f0.png",118
"551","4",1,"L","T1Trial","Outcome","544.8","right",1,"right","pie13.png",1,"f2.png","f5.png",119
"552","4",1,"L","T1Trial","Outcome","616.3","right",1,"right","pie13.png",0,"f2.png","f6.png",120
"553","4",1,"L","T1Trial","Outcome","558.9","left",1,"left","pie0.png",0,"f0.png","f7.png",121
"554","4",1,"L","T1Trial","Outcome","598.9","left",1,"left","pie0.png",0,"f0.png","f7.png",122
"555","4",1,"L","T1Trial","Outcome","661.7","right",1,"right","pie23.png",1,"f0.png","f0.png",123
"556","4",1,"L","T1Trial","Outcome","589.3","left",1,"left","pie0.png",0,"f0.png","f7.png",124
"557","4",1,"L","T1Trial","Outcome","632.6","left",1,"left","pie23.png",1,"f0.png","f0.png",125
"558","4",1,"L","T1Trial","Outcome","531.4","right",1,"right","pie23.png",1,"f0.png","f0.png",126
"559","4",1,"L","T1Trial","Outcome","520.1","left",1,"left","pie23.png",1,"f0.png","f0.png",127
"560","4",1,"L","T1Trial","Outcome","642.5","right",1,"right","pie0.png",0,"f0.png","f7.png",128
"561","4",1,"L","T1Trial","Outcome","665.1","right",1,"right","pie0.png",0,"f0.png","f7.png",129
"562","4",1,"L","T1Trial","Outcome","584.7","right",1,"right","pie13.png",0,"f2.png","f6.png",130
"563","4",1,"L","T1Trial","Outcome","545.4","right",1,"right","pie13.png",0,"f2.png","f6.png",131
"564","4",1,"L","T1Trial","Outcome","540.6","right",1,"right","pie0.png",0,"f0.png","f7.png",132
"565","4",1,"L","T1Trial","Outcome","515.1","right",1,"right","pie13.png",1,"f2.png","f5.png",133
"566","4",1,"L","T1Trial","Outcome","587.7","left",1,"left","pie23.png",0,"f0.png","f0.png",134
"567","4",1,"L","T1Trial","Outcome","526.3","left",1,"left","pie23.png",1,"f0.png","f0.png",135
"568","4",1,"L","T1Trial","Outcome","511.2","right",1,"right","pie23.png",1,"f0.png","f0.png",136
"569","4",1,"L","T1Trial","Outcome","550","right",1,"right","pie13.png",0,"f2.png","f6.png",137
"570","4",1,"L","T1Trial","Outcome","527.2","left",1,"left","pie23.png",0,"f0.png","f0.png",138
"571","4",1,"L","T1Trial","Outcome","653.9","left",1,"left","pie0.png",0,"f0.png","f7.png",139
"572","4",1,"L","T1Trial","Outcome","542.8","right",1,"right","pie23.png",0,"f0.png","f0.png",140
"573","4",1,"L","T1Trial","Outcome","766.8","right",1,"right","pie0.png",0,"f0.png","f7.png",141
"574","4",1,"L","T1Trial","Outcome","568.7","left",1,"left","pie13.png",1,"f2.png","f5.png",142
"575","4",1,"L","T1Trial","Outcome","673.2","left",1,"left","pie13.png",0,"f2.png","f6.png",143
"576","4",1,"L","T1Trial","Outcome","497.5","right",1,"right","pie0.png",0,"f0.png","f7.png",144
"577","5",1,"H","T1Trial","Outcome","499.8","right",1,"right","pie1.png",1,"f3.png","f7.png",1
"578","5",1,"H","T1Trial","Outcome","420.4","right",1,"right","pie23.png",1,"f0.png","f0.png",2
"579","5",1,"H","T1Trial","Outcome","466.8","right",1,"right","pie1.png",1,"f3.png","f7.png",3
"580","5",1,"H","T1Trial","Outcome","442.5","left",1,"left","pie1.png",1,"f3.png","f7.png",4
"581","5",1,"H","T1Trial","Outcome","544.1","right",1,"right","pie13.png",0,"f2.png","f4.png",5
"582","5",1,"H","T1Trial","Outcome","482.5","right",1,"right","pie23.png",0,"f0.png","f0.png",6
"583","5",1,"H","T1Trial","Outcome","471.2","right",1,"right","pie1.png",1,"f3.png","f7.png",7
"584","5",1,"H","T1Trial","Outcome","465.4","left",1,"left","pie23.png",0,"f0.png","f0.png",8
"585","5",1,"H","T1Trial","Outcome","371.3","left",1,"left","pie23.png",0,"f0.png","f0.png",9
"586","5",1,"H","T1Trial","Outcome","407.7","right",1,"right","pie1.png",1,"f3.png","f7.png",10
"587","5",1,"H","T1Trial","Outcome","674.4","left",1,"left","pie13.png",0,"f2.png","f4.png",11
"588","5",1,"H","T1Trial","Outcome","401.8","left",1,"left","pie13.png",0,"f2.png","f4.png",12
"589","5",1,"H","T1Trial","Outcome","546.4","left",1,"left","pie23.png",1,"f0.png","f0.png",13
"590","5",1,"H","T1Trial","Outcome","498","right",1,"right","pie23.png",0,"f0.png","f0.png",14
"591","5",1,"H","T1Trial","Outcome","555.4","left",0,"right","pie13.png",0,"f2.png","f4.png",15
"592","5",1,"H","T1Trial","Outcome","627","right",1,"right","pie13.png",0,"f2.png","f4.png",16
"593","5",1,"H","T1Trial","Outcome","537.5","left",1,"left","pie13.png",1,"f2.png","f6.png",17
"594","5",1,"H","T1Trial","Outcome","556.4","left",1,"left","pie23.png",1,"f0.png","f0.png",18
"595","5",1,"H","T1Trial","Outcome","703.4","right",1,"right","pie13.png",0,"f2.png","f4.png",19
"596","5",1,"H","T1Trial","Outcome","542.1","right",1,"right","pie1.png",1,"f3.png","f7.png",20
"597","5",1,"H","T1Trial","Outcome","503.7","left",1,"left","pie13.png",0,"f2.png","f4.png",21
"598","5",1,"H","T1Trial","Outcome","433.1","right",1,"right","pie13.png",0,"f2.png","f4.png",22
"599","5",1,"H","T1Trial","Outcome","442","left",1,"left","pie1.png",1,"f3.png","f7.png",23
"600","5",1,"H","T1Trial","Outcome","409.9","left",1,"left","pie1.png",1,"f3.png","f7.png",24
"601","5",1,"H","T1Trial","Outcome","526.8","left",1,"left","pie23.png",1,"f0.png","f0.png",25
"602","5",1,"H","T1Trial","Outcome","355.7","right",1,"right","pie1.png",1,"f3.png","f7.png",26
"603","5",1,"H","T1Trial","Outcome","419.8","left",1,"left","pie13.png",0,"f2.png","f4.png",27
"604","5",1,"H","T1Trial","Outcome","432.1","right",1,"right","pie23.png",0,"f0.png","f0.png",28
"605","5",1,"H","T1Trial","Outcome","311.3","left",0,"right","pie1.png",1,"f3.png","f7.png",29
"606","5",1,"H","T1Trial","Outcome","478.8","right",1,"right","pie23.png",1,"f0.png","f0.png",30
"607","5",1,"H","T1Trial","Outcome","456.1","right",1,"right","pie13.png",0,"f2.png","f4.png",31
"608","5",1,"H","T1Trial","Outcome","596.5","right",1,"right","pie13.png",0,"f2.png","f4.png",32
"609","5",1,"H","T1Trial","Outcome","519.2","right",1,"right","pie13.png",1,"f2.png","f6.png",33
"610","5",1,"H","T1Trial","Outcome","479.7","left",1,"left","pie1.png",1,"f3.png","f7.png",34
"611","5",1,"H","T1Trial","Outcome","456.4","left",1,"left","pie23.png",1,"f0.png","f0.png",35
"612","5",1,"H","T1Trial","Outcome","390.5","right",1,"right","pie23.png",0,"f0.png","f0.png",36
"613","5",1,"H","T1Trial","Outcome","435.5","right",1,"right","pie13.png",1,"f2.png","f6.png",37
"614","5",1,"H","T1Trial","Outcome","573.4","left",1,"left","pie13.png",0,"f2.png","f4.png",38
"615","5",1,"H","T1Trial","Outcome","410.7","right",1,"right","pie13.png",1,"f2.png","f6.png",39
"616","5",1,"H","T1Trial","Outcome","391.8","right",1,"right","pie23.png",1,"f0.png","f0.png",40
"617","5",1,"H","T1Trial","Outcome","438.1","left",1,"left","pie1.png",1,"f3.png","f7.png",41
"618","5",1,"H","T1Trial","Outcome","393","right",1,"right","pie23.png",1,"f0.png","f0.png",42
"619","5",1,"H","T1Trial","Outcome","416.8","right",1,"right","pie1.png",1,"f3.png","f7.png",43
"620","5",1,"H","T1Trial","Outcome","391.3","right",1,"right","pie1.png",1,"f3.png","f7.png",44
"621","5",1,"H","T1Trial","Outcome","435.2","left",1,"left","pie1.png",1,"f3.png","f7.png",45
"622","5",1,"H","T1Trial","Outcome","430.8","left",1,"left","pie1.png",1,"f3.png","f7.png",46
"623","5",1,"H","T1Trial","Outcome","469.3","left",1,"left","pie1.png",1,"f3.png","f7.png",47
"624","5",1,"H","T1Trial","Outcome","422.3","right",1,"right","pie1.png",1,"f3.png","f7.png",48
"625","5",1,"H","T1Trial","Outcome","389.4","right",1,"right","pie1.png",1,"f3.png","f7.png",49
"626","5",1,"H","T1Trial","Outcome","426.9","left",1,"left","pie13.png",1,"f2.png","f6.png",50
"627","5",1,"H","T1Trial","Outcome","451.7","right",1,"right","pie1.png",1,"f3.png","f7.png",51
"628","5",1,"H","T1Trial","Outcome","461.8","right",1,"right","pie23.png",1,"f0.png","f0.png",52
"629","5",1,"H","T1Trial","Outcome","417.4","right",1,"right","pie23.png",1,"f0.png","f0.png",53
"630","5",1,"H","T1Trial","Outcome","476.7","right",1,"right","pie23.png",0,"f0.png","f0.png",54
"631","5",1,"H","T1Trial","Outcome","436.3","right",1,"right","pie13.png",1,"f2.png","f6.png",55
"632","5",1,"H","T1Trial","Outcome","423.7","right",1,"right","pie13.png",1,"f2.png","f6.png",56
"633","5",1,"H","T1Trial","Outcome","487.9","right",1,"right","pie1.png",1,"f3.png","f7.png",57
"634","5",1,"H","T1Trial","Outcome","556.5","left",1,"left","pie13.png",0,"f2.png","f4.png",58
"635","5",1,"H","T1Trial","Outcome","376","left",1,"left","pie23.png",1,"f0.png","f0.png",59
"636","5",1,"H","T1Trial","Outcome","403.4","right",1,"right","pie1.png",1,"f3.png","f7.png",60
"637","5",1,"H","T1Trial","Outcome","425.5","right",1,"right","pie23.png",1,"f0.png","f0.png",61
"638","5",1,"H","T1Trial","Outcome","401.7","left",1,"left","pie23.png",1,"f0.png","f0.png",62
"639","5",1,"H","T1Trial","Outcome","407.8","left",1,"left","pie13.png",1,"f2.png","f6.png",63
"640","5",1,"H","T1Trial","Outcome","613.9","left",1,"left","pie23.png",1,"f0.png","f0.png",64
"641","5",1,"H","T1Trial","Outcome","441.8","left",1,"left","pie23.png",1,"f0.png","f0.png",65
"642","5",1,"H","T1Trial","Outcome","396.4","right",1,"right","pie1.png",1,"f3.png","f7.png",66
"643","5",1,"H","T1Trial","Outcome","550.6","left",1,"left","pie23.png",0,"f0.png","f0.png",67
"644","5",1,"H","T1Trial","Outcome","480.3","left",0,"right","pie13.png",0,"f2.png","f4.png",68
"645","5",1,"H","T1Trial","Outcome","532.7","right",1,"right","pie13.png",0,"f2.png","f4.png",69
"646","5",1,"H","T1Trial","Outcome","848.1","right",1,"right","pie13.png",0,"f2.png","f4.png",70
"647","5",1,"H","T1Trial","Outcome","504","left",1,"left","pie1.png",1,"f3.png","f7.png",71
"648","5",1,"H","T1Trial","Outcome","439.5","right",1,"right","pie23.png",1,"f0.png","f0.png",72
"649","5",1,"L","T1Trial","Outcome","425.7","left",1,"left","pie13.png",1,"f1.png","f6.png",73
"650","5",1,"L","T1Trial","Outcome","429.7","right",1,"right","pie23.png",1,"f0.png","f0.png",74
"651","5",1,"L","T1Trial","Outcome","419.5","right",1,"right","pie23.png",1,"f0.png","f0.png",75
"652","5",1,"L","T1Trial","Outcome","416.7","left",1,"left","pie23.png",1,"f0.png","f0.png",76
"653","5",1,"L","T1Trial","Outcome","453.7","left",1,"left","pie0.png",0,"f0.png","f5.png",77
"654","5",1,"L","T1Trial","Outcome","394.7","right",1,"right","pie13.png",1,"f1.png","f6.png",78
"655","5",1,"L","T1Trial","Outcome","420.6","right",1,"right","pie23.png",1,"f0.png","f0.png",79
"656","5",1,"L","T1Trial","Outcome","394.2","right",1,"right","pie13.png",0,"f1.png","f4.png",80
"657","5",1,"L","T1Trial","Outcome","405.3","right",1,"right","pie23.png",1,"f0.png","f0.png",81
"658","5",1,"L","T1Trial","Outcome","602.8","left",1,"left","pie23.png",0,"f0.png","f0.png",82
"659","5",1,"L","T1Trial","Outcome","379.9","right",1,"right","pie13.png",1,"f1.png","f6.png",83
"660","5",1,"L","T1Trial","Outcome","377.4","left",1,"left","pie23.png",1,"f0.png","f0.png",84
"661","5",1,"L","T1Trial","Outcome","371.2","right",1,"right","pie23.png",1,"f0.png","f0.png",85
"662","5",1,"L","T1Trial","Outcome","339.8","left",1,"left","pie23.png",0,"f0.png","f0.png",86
"663","5",1,"L","T1Trial","Outcome","457.4","right",1,"right","pie23.png",0,"f0.png","f0.png",87
"664","5",1,"L","T1Trial","Outcome","360.5","left",1,"left","pie23.png",1,"f0.png","f0.png",88
"665","5",1,"L","T1Trial","Outcome","615.2","right",1,"right","pie0.png",0,"f0.png","f5.png",89
"666","5",1,"L","T1Trial","Outcome","518.1","left",1,"left","pie13.png",0,"f1.png","f4.png",90
"667","5",1,"L","T1Trial","Outcome","382.7","right",1,"right","pie0.png",0,"f0.png","f5.png",91
"668","5",1,"L","T1Trial","Outcome","423.7","left",1,"left","pie13.png",1,"f1.png","f6.png",92
"669","5",1,"L","T1Trial","Outcome","589","right",1,"right","pie13.png",0,"f1.png","f4.png",93
"670","5",1,"L","T1Trial","Outcome","402.4","left",1,"left","pie0.png",0,"f0.png","f5.png",94
"671","5",1,"L","T1Trial","Outcome","366.4","left",1,"left","pie0.png",0,"f0.png","f5.png",95
"672","5",1,"L","T1Trial","Outcome","398.3","left",1,"left","pie0.png",0,"f0.png","f5.png",96
"673","5",1,"L","T1Trial","Outcome","427.1","right",1,"right","pie0.png",0,"f0.png","f5.png",97
"674","5",1,"L","T1Trial","Outcome","361","left",1,"left","pie23.png",1,"f0.png","f0.png",98
"675","5",1,"L","T1Trial","Outcome","374.2","right",1,"right","pie13.png",0,"f1.png","f4.png",99
"676","5",1,"L","T1Trial","Outcome","481.9","right",1,"right","pie23.png",0,"f0.png","f0.png",100
"677","5",1,"L","T1Trial","Outcome","390.4","right",1,"right","pie23.png",1,"f0.png","f0.png",101
"678","5",1,"L","T1Trial","Outcome","423","right",1,"right","pie23.png",1,"f0.png","f0.png",102
"679","5",1,"L","T1Trial","Outcome","377.5","right",1,"right","pie23.png",1,"f0.png","f0.png",103
"680","5",1,"L","T1Trial","Outcome","448.9","left",1,"left","pie13.png",1,"f1.png","f6.png",104
"681","5",1,"L","T1Trial","Outcome","418.1","right",1,"right","pie23.png",0,"f0.png","f0.png",105
"682","5",1,"L","T1Trial","Outcome","383.5","left",1,"left","pie0.png",0,"f0.png","f5.png",106
"683","5",1,"L","T1Trial","Outcome","453","left",1,"left","pie13.png",0,"f1.png","f4.png",107
"684","5",1,"L","T1Trial","Outcome","475.5","left",1,"left","pie13.png",1,"f1.png","f6.png",108
"685","5",1,"L","T1Trial","Outcome","766","right",1,"right","pie0.png",0,"f0.png","f5.png",109
"686","5",1,"L","T1Trial","Outcome","381.4","left",1,"left","pie0.png",0,"f0.png","f5.png",110
"687","5",1,"L","T1Trial","Outcome","378.8","right",1,"right","pie0.png",0,"f0.png","f5.png",111
"688","5",1,"L","T1Trial","Outcome","414.8","left",1,"left","pie13.png",0,"f1.png","f4.png",112
"689","5",1,"L","T1Trial","Outcome","438.2","left",1,"left","pie0.png",0,"f0.png","f5.png",113
"690","5",1,"L","T1Trial","Outcome","344.2","left",1,"left","pie13.png",0,"f1.png","f4.png",114
"691","5",1,"L","T1Trial","Outcome","450.5","left",1,"left","pie23.png",1,"f0.png","f0.png",115
"692","5",1,"L","T1Trial","Outcome","392.9","left",1,"left","pie0.png",0,"f0.png","f5.png",116
"693","5",1,"L","T1Trial","Outcome","382.3","right",1,"right","pie0.png",0,"f0.png","f5.png",117
"694","5",1,"L","T1Trial","Outcome","403.2","left",1,"left","pie23.png",1,"f0.png","f0.png",118
"695","5",1,"L","T1Trial","Outcome","636","left",1,"left","pie0.png",0,"f0.png","f5.png",119
"696","5",1,"L","T1Trial","Outcome","412.6","left",1,"left","pie23.png",1,"f0.png","f0.png",120
"697","5",1,"L","T1Trial","Outcome","471.9","left",1,"left","pie0.png",0,"f0.png","f5.png",121
"698","5",1,"L","T1Trial","Outcome","411.6","left",1,"left","pie13.png",0,"f1.png","f4.png",122
"699","5",1,"L","T1Trial","Outcome","403.3","right",1,"right","pie23.png",0,"f0.png","f0.png",123
"700","5",1,"L","T1Trial","Outcome","427.4","left",1,"left","pie0.png",0,"f0.png","f5.png",124
"701","5",1,"L","T1Trial","Outcome","447.1","left",1,"left","pie13.png",0,"f1.png","f4.png",125
"702","5",1,"L","T1Trial","Outcome","651.7","right",1,"right","pie0.png",0,"f0.png","f5.png",126
"703","5",1,"L","T1Trial","Outcome","522.4","right",1,"right","pie0.png",0,"f0.png","f5.png",127
"704","5",1,"L","T1Trial","Outcome","408.4","right",1,"right","pie23.png",0,"f0.png","f0.png",128
"705","5",1,"L","T1Trial","Outcome","487.4","right",1,"right","pie13.png",0,"f1.png","f4.png",129
"706","5",1,"L","T1Trial","Outcome","504.3","right",1,"right","pie0.png",0,"f0.png","f5.png",130
"707","5",1,"L","T1Trial","Outcome","613.6","left",1,"left","pie0.png",0,"f0.png","f5.png",131
"708","5",1,"L","T1Trial","Outcome","447.3","left",1,"left","pie13.png",0,"f1.png","f4.png",132
"709","5",1,"L","T1Trial","Outcome","477.9","left",1,"left","pie13.png",1,"f1.png","f6.png",133
"710","5",1,"L","T1Trial","Outcome","432.8","left",1,"left","pie0.png",0,"f0.png","f5.png",134
"711","5",1,"L","T1Trial","Outcome","384.3","left",1,"left","pie13.png",0,"f1.png","f4.png",135
"712","5",1,"L","T1Trial","Outcome","568.5","left",1,"left","pie0.png",0,"f0.png","f5.png",136
"713","5",1,"L","T1Trial","Outcome","350.2","left",1,"left","pie13.png",0,"f1.png","f4.png",137
"714","5",1,"L","T1Trial","Outcome","400.1","right",1,"right","pie13.png",0,"f1.png","f4.png",138
"715","5",1,"L","T1Trial","Outcome","458.1","right",1,"right","pie0.png",0,"f0.png","f5.png",139
"716","5",1,"L","T1Trial","Outcome","613.4","right",1,"right","pie23.png",1,"f0.png","f0.png",140
"717","5",1,"L","T1Trial","Outcome","457.8","left",1,"left","pie13.png",0,"f1.png","f4.png",141
"718","5",1,"L","T1Trial","Outcome","457.9","left",1,"left","pie13.png",0,"f1.png","f4.png",142
"719","5",1,"L","T1Trial","Outcome","464.1","right",1,"right","pie13.png",1,"f1.png","f6.png",143
"720","5",1,"L","T1Trial","Outcome","503.5","left",1,"left","pie23.png",0,"f0.png","f0.png",144
"721","6",1,"H","T1Trial","Outcome","519.5","right",1,"right","pie23.png",0,"f0.png","f0.png",1
"722","6",1,"H","T1Trial","Outcome","822.5999999","right",1,"right","pie1.png",1,"f2.png","f5.png",2
"723","6",1,"H","T1Trial","Outcome","776.5","right",1,"right","pie13.png",1,"f3.png","f7.png",3
"724","6",1,"H","T1Trial","Outcome","735.3","right",1,"right","pie13.png",0,"f3.png","f4.png",4
"725","6",1,"H","T1Trial","Outcome","580.3999999","right",1,"right","pie1.png",1,"f2.png","f5.png",5
"726","6",1,"H","T1Trial","Outcome","579.8","right",1,"right","pie23.png",1,"f0.png","f0.png",6
"727","6",1,"H","T1Trial","Outcome","630.1000001","left",1,"left","pie1.png",1,"f2.png","f5.png",7
"728","6",1,"H","T1Trial","Outcome","1703.3","left",1,"left","pie23.png",1,"f0.png","f0.png",8
"729","6",1,"H","T1Trial","Outcome","403.3","left",1,"left","pie13.png",0,"f3.png","f4.png",9
"730","6",1,"H","T1Trial","Outcome","454.6000001","left",1,"left","pie13.png",0,"f3.png","f4.png",10
"731","6",1,"H","T1Trial","Outcome","436.5","right",1,"right","pie13.png",0,"f3.png","f4.png",11
"732","6",1,"H","T1Trial","Outcome","453.8000002","left",1,"left","pie23.png",0,"f0.png","f0.png",12
"733","6",1,"H","T1Trial","Outcome","659.8","right",1,"right","pie13.png",0,"f3.png","f4.png",13
"734","6",1,"H","T1Trial","Outcome","580.9000001","right",1,"right","pie23.png",1,"f0.png","f0.png",14
"735","6",1,"H","T1Trial","Outcome","594.1999998","right",1,"right","pie1.png",1,"f2.png","f5.png",15
"736","6",1,"H","T1Trial","Outcome","565.0999999","right",1,"right","pie13.png",0,"f3.png","f4.png",16
"737","6",1,"H","T1Trial","Outcome","1830.8","right",1,"right","pie23.png",1,"f0.png","f0.png",17
"738","6",1,"H","T1Trial","Outcome","465.3000002","left",1,"left","pie1.png",1,"f2.png","f5.png",18
"739","6",1,"H","T1Trial","Outcome","485.3","left",1,"left","pie1.png",1,"f2.png","f5.png",19
"740","6",1,"H","T1Trial","Outcome","422.3","left",1,"left","pie1.png",1,"f2.png","f5.png",20
"741","6",1,"H","T1Trial","Outcome","576.9000001","right",1,"right","pie1.png",1,"f2.png","f5.png",21
"742","6",1,"H","T1Trial","Outcome","588","left",1,"left","pie13.png",0,"f3.png","f4.png",22
"743","6",1,"H","T1Trial","Outcome","504.5","left",1,"left","pie1.png",1,"f2.png","f5.png",23
"744","6",1,"H","T1Trial","Outcome","575.6000001","right",1,"right","pie23.png",0,"f0.png","f0.png",24
"745","6",1,"H","T1Trial","Outcome","592.2","left",1,"left","pie23.png",1,"f0.png","f0.png",25
"746","6",1,"H","T1Trial","Outcome","677.5","right",1,"right","pie1.png",1,"f2.png","f5.png",26
"747","6",1,"H","T1Trial","Outcome","1607.4","left",1,"left","pie13.png",0,"f3.png","f4.png",27
"748","6",1,"H","T1Trial","Outcome","599.1000001","right",1,"right","pie13.png",1,"f3.png","f7.png",28
"749","6",1,"H","T1Trial","Outcome","764.5","right",1,"right","pie23.png",1,"f0.png","f0.png",29
"750","6",1,"H","T1Trial","Outcome","575.6000001","left",1,"left","pie13.png",1,"f3.png","f7.png",30
"751","6",1,"H","T1Trial","Outcome","496.5","right",1,"right","pie13.png",0,"f3.png","f4.png",31
"752","6",1,"H","T1Trial","Outcome","824.8","left",1,"left","pie1.png",1,"f2.png","f5.png",32
"753","6",1,"H","T1Trial","Outcome","598.7","right",1,"right","pie23.png",1,"f0.png","f0.png",33
"754","6",1,"H","T1Trial","Outcome","632.9000001","left",1,"left","pie1.png",1,"f2.png","f5.png",34
"755","6",1,"H","T1Trial","Outcome","1121","left",1,"left","pie23.png",1,"f0.png","f0.png",35
"756","6",1,"H","T1Trial","Outcome","462.6999998","right",1,"right","pie1.png",1,"f2.png","f5.png",36
"757","6",1,"H","T1Trial","Outcome","640.3","left",1,"left","pie23.png",0,"f0.png","f0.png",37
"758","6",1,"H","T1Trial","Outcome","496","right",1,"right","pie13.png",1,"f3.png","f7.png",38
"759","6",1,"H","T1Trial","Outcome","618.3999999","left",1,"left","pie23.png",1,"f0.png","f0.png",39
"760","6",1,"H","T1Trial","Outcome","583.4000001","left",1,"left","pie13.png",0,"f3.png","f4.png",40
"761","6",1,"H","T1Trial","Outcome","536.3","right",1,"right","pie23.png",0,"f0.png","f0.png",41
"762","6",1,"H","T1Trial","Outcome","669","left",1,"left","pie23.png",1,"f0.png","f0.png",42
"763","6",1,"H","T1Trial","Outcome","1080.7","left",1,"left","pie13.png",1,"f3.png","f7.png",43
"764","6",1,"H","T1Trial","Outcome","1128.4","right",1,"right","pie23.png",1,"f0.png","f0.png",44
"765","6",1,"H","T1Trial","Outcome","1064","left",1,"left","pie23.png",1,"f0.png","f0.png",45
"766","6",1,"H","T1Trial","Outcome","935.5999999","left",1,"left","pie1.png",1,"f2.png","f5.png",46
"767","6",1,"H","T1Trial","Outcome","2000.025","",0,"left","pie23.png",1,"f0.png","f0.png",47
"768","6",1,"H","T1Trial","Outcome","449.8000002","right",1,"right","pie1.png",1,"f2.png","f5.png",48
"769","6",1,"H","T1Trial","Outcome","439.3999999","left",1,"left","pie1.png",1,"f2.png","f5.png",49
"770","6",1,"H","T1Trial","Outcome","523.4000001","left",1,"left","pie13.png",0,"f3.png","f4.png",50
"771","6",1,"H","T1Trial","Outcome","508.4000001","left",1,"left","pie23.png",1,"f0.png","f0.png",51
"772","6",1,"H","T1Trial","Outcome","447.8","right",1,"right","pie1.png",1,"f2.png","f5.png",52
"773","6",1,"H","T1Trial","Outcome","660.6000001","right",1,"right","pie1.png",1,"f2.png","f5.png",53
"774","6",1,"H","T1Trial","Outcome","574.2","left",1,"left","pie23.png",1,"f0.png","f0.png",54
"775","6",1,"H","T1Trial","Outcome","789.3999999","right",1,"right","pie13.png",0,"f3.png","f4.png",55
"776","6",1,"H","T1Trial","Outcome","675.7","right",1,"right","pie23.png",0,"f0.png","f0.png",56
"777","6",1,"H","T1Trial","Outcome","526.9000001","right",1,"right","pie13.png",0,"f3.png","f4.png",57
"778","6",1,"H","T1Trial","Outcome","480.1000001","left",1,"left","pie1.png",1,"f2.png","f5.png",58
"779","6",1,"H","T1Trial","Outcome","454","right",1,"right","pie1.png",1,"f2.png","f5.png",59
"780","6",1,"H","T1Trial","Outcome","491.8999999","right",1,"right","pie1.png",1,"f2.png","f5.png",60
"781","6",1,"H","T1Trial","Outcome","545","left",1,"left","pie13.png",0,"f3.png","f4.png",61
"782","6",1,"H","T1Trial","Outcome","588.3","left",1,"left","pie23.png",1,"f0.png","f0.png",62
"783","6",1,"H","T1Trial","Outcome","662.3","left",1,"left","pie23.png",0,"f0.png","f0.png",63
"784","6",1,"H","T1Trial","Outcome","450.3","right",1,"right","pie13.png",1,"f3.png","f7.png",64
"785","6",1,"H","T1Trial","Outcome","1999.794","",0,"right","pie13.png",1,"f3.png","f7.png",65
"786","6",1,"H","T1Trial","Outcome","420.5","right",1,"right","pie1.png",1,"f2.png","f5.png",66
"787","6",1,"H","T1Trial","Outcome","1049.5","right",1,"right","pie13.png",1,"f3.png","f7.png",67
"788","6",1,"H","T1Trial","Outcome","402.3","left",1,"left","pie1.png",1,"f2.png","f5.png",68
"789","6",1,"H","T1Trial","Outcome","521.7","right",1,"right","pie23.png",0,"f0.png","f0.png",69
"790","6",1,"H","T1Trial","Outcome","1999.801","",0,"right","pie13.png",0,"f3.png","f4.png",70
"791","6",1,"H","T1Trial","Outcome","527.7","right",1,"right","pie13.png",0,"f3.png","f4.png",71
"792","6",1,"H","T1Trial","Outcome","598.7","left",1,"left","pie1.png",1,"f2.png","f5.png",72
"793","6",1,"L","T1Trial","Outcome","580.8999999","right",1,"right","pie23.png",0,"f0.png","f0.png",73
"794","6",1,"L","T1Trial","Outcome","553.0999999","left",1,"left","pie13.png",0,"f1.png","f4.png",74
"795","6",1,"L","T1Trial","Outcome","504.4000001","right",1,"right","pie23.png",0,"f0.png","f0.png",75
"796","6",1,"L","T1Trial","Outcome","515.4000001","left",1,"left","pie13.png",0,"f1.png","f4.png",76
"797","6",1,"L","T1Trial","Outcome","509.0999999","right",1,"right","pie23.png",0,"f0.png","f0.png",77
"798","6",1,"L","T1Trial","Outcome","380.1000001","left",1,"left","pie0.png",0,"f0.png","f6.png",78
"799","6",1,"L","T1Trial","Outcome","549.8000002","right",1,"right","pie0.png",0,"f0.png","f6.png",79
"800","6",1,"L","T1Trial","Outcome","555.2","right",1,"right","pie0.png",0,"f0.png","f6.png",80
"801","6",1,"L","T1Trial","Outcome","638.4000001","left",1,"left","pie0.png",0,"f0.png","f6.png",81
"802","6",1,"L","T1Trial","Outcome","687.6000001","left",1,"left","pie13.png",1,"f1.png","f7.png",82
"803","6",1,"L","T1Trial","Outcome","473.4000001","right",1,"right","pie13.png",0,"f1.png","f4.png",83
"804","6",1,"L","T1Trial","Outcome","549.2","left",1,"left","pie13.png",0,"f1.png","f4.png",84
"805","6",1,"L","T1Trial","Outcome","621","right",1,"right","pie0.png",0,"f0.png","f6.png",85
"806","6",1,"L","T1Trial","Outcome","489.8","right",1,"right","pie13.png",0,"f1.png","f4.png",86
"807","6",1,"L","T1Trial","Outcome","665.8000002","right",1,"right","pie0.png",0,"f0.png","f6.png",87
"808","6",1,"L","T1Trial","Outcome","636.5","right",1,"right","pie0.png",0,"f0.png","f6.png",88
"809","6",1,"L","T1Trial","Outcome","579.2","left",1,"left","pie13.png",1,"f1.png","f7.png",89
"810","6",1,"L","T1Trial","Outcome","514","left",1,"left","pie13.png",0,"f1.png","f4.png",90
"811","6",1,"L","T1Trial","Outcome","522.8","left",1,"left","pie0.png",0,"f0.png","f6.png",91
"812","6",1,"L","T1Trial","Outcome","749.1000001","right",1,"right","pie23.png",1,"f0.png","f0.png",92
"813","6",1,"L","T1Trial","Outcome","682.1000001","right",1,"right","pie0.png",0,"f0.png","f6.png",93
"814","6",1,"L","T1Trial","Outcome","420.2","left",1,"left","pie13.png",0,"f1.png","f4.png",94
"815","6",1,"L","T1Trial","Outcome","538.9000001","left",1,"left","pie23.png",1,"f0.png","f0.png",95
"816","6",1,"L","T1Trial","Outcome","458.5999999","left",1,"left","pie0.png",0,"f0.png","f6.png",96
"817","6",1,"L","T1Trial","Outcome","428.2","left",1,"left","pie0.png",0,"f0.png","f6.png",97
"818","6",1,"L","T1Trial","Outcome","426.2","left",1,"left","pie13.png",0,"f1.png","f4.png",98
"819","6",1,"L","T1Trial","Outcome","564.9000001","right",1,"right","pie0.png",0,"f0.png","f6.png",99
"820","6",1,"L","T1Trial","Outcome","547.9000001","left",1,"left","pie23.png",1,"f0.png","f0.png",100
"821","6",1,"L","T1Trial","Outcome","513.3999999","left",1,"left","pie23.png",1,"f0.png","f0.png",101
"822","6",1,"L","T1Trial","Outcome","500.5","right",1,"right","pie23.png",1,"f0.png","f0.png",102
"823","6",1,"L","T1Trial","Outcome","734.3000002","left",1,"left","pie13.png",0,"f1.png","f4.png",103
"824","6",1,"L","T1Trial","Outcome","535.7","right",1,"right","pie0.png",0,"f0.png","f6.png",104
"825","6",1,"L","T1Trial","Outcome","925.3000002","left",1,"left","pie23.png",1,"f0.png","f0.png",105
"826","6",1,"L","T1Trial","Outcome","469.1000001","left",1,"left","pie23.png",0,"f0.png","f0.png",106
"827","6",1,"L","T1Trial","Outcome","1913.4","left",1,"left","pie23.png",1,"f0.png","f0.png",107
"828","6",1,"L","T1Trial","Outcome","360.5","left",1,"left","pie0.png",0,"f0.png","f6.png",108
"829","6",1,"L","T1Trial","Outcome","443.5999999","left",1,"left","pie23.png",1,"f0.png","f0.png",109
"830","6",1,"L","T1Trial","Outcome","534.5999999","right",1,"right","pie0.png",0,"f0.png","f6.png",110
"831","6",1,"L","T1Trial","Outcome","631.3","left",1,"left","pie0.png",0,"f0.png","f6.png",111
"832","6",1,"L","T1Trial","Outcome","520.1000001","right",1,"right","pie0.png",0,"f0.png","f6.png",112
"833","6",1,"L","T1Trial","Outcome","450.7","right",1,"right","pie13.png",0,"f1.png","f4.png",113
"834","6",1,"L","T1Trial","Outcome","724.0999999","right",1,"right","pie13.png",1,"f1.png","f7.png",114
"835","6",1,"L","T1Trial","Outcome","492.2","left",1,"left","pie13.png",0,"f1.png","f4.png",115
"836","6",1,"L","T1Trial","Outcome","628.2","right",1,"right","pie23.png",1,"f0.png","f0.png",116
"837","6",1,"L","T1Trial","Outcome","549.5999999","left",1,"left","pie13.png",0,"f1.png","f4.png",117
"838","6",1,"L","T1Trial","Outcome","471.3","right",1,"right","pie23.png",0,"f0.png","f0.png",118
"839","6",1,"L","T1Trial","Outcome","521.7","left",1,"left","pie13.png",0,"f1.png","f4.png",119
"840","6",1,"L","T1Trial","Outcome","546.2","left",1,"left","pie13.png",0,"f1.png","f4.png",120
"841","6",1,"L","T1Trial","Outcome","514.6000001","left",1,"left","pie0.png",0,"f0.png","f6.png",121
"842","6",1,"L","T1Trial","Outcome","564.5999999","left",1,"left","pie13.png",1,"f1.png","f7.png",122
"843","6",1,"L","T1Trial","Outcome","581.2","left",1,"left","pie0.png",0,"f0.png","f6.png",123
"844","6",1,"L","T1Trial","Outcome","521.2","right",1,"right","pie13.png",0,"f1.png","f4.png",124
"845","6",1,"L","T1Trial","Outcome","566.3000002","right",1,"right","pie13.png",1,"f1.png","f7.png",125
"846","6",1,"L","T1Trial","Outcome","741.8","right",1,"right","pie23.png",1,"f0.png","f0.png",126
"847","6",1,"L","T1Trial","Outcome","552.8","left",1,"left","pie23.png",1,"f0.png","f0.png",127
"848","6",1,"L","T1Trial","Outcome","933.8999999","right",1,"right","pie23.png",1,"f0.png","f0.png",128
"849","6",1,"L","T1Trial","Outcome","662.4000001","right",1,"right","pie13.png",1,"f1.png","f7.png",129
"850","6",1,"L","T1Trial","Outcome","483","right",1,"right","pie23.png",0,"f0.png","f0.png",130
"851","6",1,"L","T1Trial","Outcome","417.8","left",1,"left","pie23.png",0,"f0.png","f0.png",131
"852","6",1,"L","T1Trial","Outcome","567.4000001","right",1,"right","pie23.png",1,"f0.png","f0.png",132
"853","6",1,"L","T1Trial","Outcome","432.7","left",1,"left","pie23.png",1,"f0.png","f0.png",133
"854","6",1,"L","T1Trial","Outcome","517.2","left",1,"left","pie0.png",0,"f0.png","f6.png",134
"855","6",1,"L","T1Trial","Outcome","710.8","left",1,"left","pie23.png",1,"f0.png","f0.png",135
"856","6",1,"L","T1Trial","Outcome","537","right",1,"right","pie23.png",0,"f0.png","f0.png",136
"857","6",1,"L","T1Trial","Outcome","436.2","left",1,"left","pie13.png",1,"f1.png","f7.png",137
"858","6",1,"L","T1Trial","Outcome","517.1000001","left",1,"left","pie13.png",1,"f1.png","f7.png",138
"859","6",1,"L","T1Trial","Outcome","1212.5","left",1,"left","pie23.png",1,"f0.png","f0.png",139
"860","6",1,"L","T1Trial","Outcome","773.0999999","right",1,"right","pie0.png",0,"f0.png","f6.png",140
"861","6",1,"L","T1Trial","Outcome","972.9000001","right",1,"right","pie0.png",0,"f0.png","f6.png",141
"862","6",1,"L","T1Trial","Outcome","450.3999999","right",1,"right","pie0.png",0,"f0.png","f6.png",142
"863","6",1,"L","T1Trial","Outcome","545.7","left",1,"left","pie0.png",0,"f0.png","f6.png",143
"864","6",1,"L","T1Trial","Outcome","435.8999999","left",1,"left","pie13.png",0,"f1.png","f4.png",144
"865","7",1,"L","T1Trial","Outcome","632","left",1,"left","pie0.png",0,"f0.png","f5.png",1
"866","7",1,"L","T1Trial","Outcome","517","right",1,"right","pie13.png",0,"f3.png","f7.png",2
"867","7",1,"L","T1Trial","Outcome","895","left",1,"left","pie13.png",0,"f3.png","f7.png",3
"868","7",1,"L","T1Trial","Outcome","657","right",1,"right","pie23.png",0,"f0.png","f0.png",4
"869","7",1,"L","T1Trial","Outcome","847","right",1,"right","pie13.png",0,"f3.png","f7.png",5
"870","7",1,"L","T1Trial","Outcome","836","right",1,"right","pie23.png",1,"f0.png","f0.png",6
"871","7",1,"L","T1Trial","Outcome","847","right",1,"right","pie0.png",0,"f0.png","f5.png",7
"872","7",1,"L","T1Trial","Outcome","760","right",1,"right","pie13.png",0,"f3.png","f7.png",8
"873","7",1,"L","T1Trial","Outcome","971","left",1,"left","pie0.png",0,"f0.png","f5.png",9
"874","7",1,"L","T1Trial","Outcome","642","left",1,"left","pie13.png",0,"f3.png","f7.png",10
"875","7",1,"L","T1Trial","Outcome","670","left",1,"left","pie0.png",0,"f0.png","f5.png",11
"876","7",1,"L","T1Trial","Outcome","898","left",1,"left","pie13.png",1,"f3.png","f4.png",12
"877","7",1,"L","T1Trial","Outcome","843","left",1,"left","pie23.png",1,"f0.png","f0.png",13
"878","7",1,"L","T1Trial","Outcome","868","right",1,"right","pie0.png",0,"f0.png","f5.png",14
"879","7",1,"L","T1Trial","Outcome","616","left",1,"left","pie23.png",0,"f0.png","f0.png",15
"880","7",1,"L","T1Trial","Outcome","746","left",1,"left","pie13.png",0,"f3.png","f7.png",16
"881","7",1,"L","T1Trial","Outcome","710","right",1,"right","pie23.png",0,"f0.png","f0.png",17
"882","7",1,"L","T1Trial","Outcome","745","left",1,"left","pie0.png",0,"f0.png","f5.png",18
"883","7",1,"L","T1Trial","Outcome","830","right",1,"right","pie23.png",1,"f0.png","f0.png",19
"884","7",1,"L","T1Trial","Outcome","801","right",1,"right","pie23.png",1,"f0.png","f0.png",20
"885","7",1,"L","T1Trial","Outcome","1013","left",1,"left","pie23.png",1,"f0.png","f0.png",21
"886","7",1,"L","T1Trial","Outcome","831","right",1,"right","pie13.png",1,"f3.png","f4.png",22
"887","7",1,"L","T1Trial","Outcome","768","left",1,"left","pie13.png",1,"f3.png","f4.png",23
"888","7",1,"L","T1Trial","Outcome","767","right",1,"right","pie13.png",0,"f3.png","f7.png",24
"889","7",1,"L","T1Trial","Outcome","573","right",1,"right","pie13.png",0,"f3.png","f7.png",25
"890","7",1,"L","T1Trial","Outcome","919","left",1,"left","pie0.png",0,"f0.png","f5.png",26
"891","7",1,"L","T1Trial","Outcome","1028","left",1,"left","pie23.png",1,"f0.png","f0.png",27
"892","7",1,"L","T1Trial","Outcome","830","left",1,"left","pie0.png",0,"f0.png","f5.png",28
"893","7",1,"L","T1Trial","Outcome","827","right",1,"right","pie0.png",0,"f0.png","f5.png",29
"894","7",1,"L","T1Trial","Outcome","688","left",1,"left","pie0.png",0,"f0.png","f5.png",30
"895","7",1,"L","T1Trial","Outcome","746","right",1,"right","pie0.png",0,"f0.png","f5.png",31
"896","7",1,"L","T1Trial","Outcome","665","right",1,"right","pie13.png",0,"f3.png","f7.png",32
"897","7",1,"L","T1Trial","Outcome","784","left",1,"left","pie23.png",0,"f0.png","f0.png",33
"898","7",1,"L","T1Trial","Outcome","839","left",1,"left","pie13.png",1,"f3.png","f4.png",34
"899","7",1,"L","T1Trial","Outcome","824","right",1,"right","pie23.png",0,"f0.png","f0.png",35
"900","7",1,"L","T1Trial","Outcome","651","right",1,"right","pie13.png",0,"f3.png","f7.png",36
"901","7",1,"L","T1Trial","Outcome","731","left",1,"left","pie13.png",1,"f3.png","f4.png",37
"902","7",1,"L","T1Trial","Outcome","837","left",1,"left","pie0.png",0,"f0.png","f5.png",38
"903","7",1,"L","T1Trial","Outcome","634","left",1,"left","pie23.png",0,"f0.png","f0.png",39
"904","7",1,"L","T1Trial","Outcome","1214","right",1,"right","pie0.png",0,"f0.png","f5.png",40
"905","7",1,"L","T1Trial","Outcome","834","left",1,"left","pie23.png",1,"f0.png","f0.png",41
"906","7",1,"L","T1Trial","Outcome","776","right",1,"right","pie0.png",0,"f0.png","f5.png",42
"907","7",1,"L","T1Trial","Outcome","671","right",1,"right","pie13.png",0,"f3.png","f7.png",43
"908","7",1,"L","T1Trial","Outcome","640","left",1,"left","pie13.png",1,"f3.png","f4.png",44
"909","7",1,"L","T1Trial","Outcome","805","left",1,"left","pie23.png",1,"f0.png","f0.png",45
"910","7",1,"L","T1Trial","Outcome","1018","right",1,"right","pie23.png",0,"f0.png","f0.png",46
"911","7",1,"L","T1Trial","Outcome","819","right",1,"right","pie13.png",0,"f3.png","f7.png",47
"912","7",1,"L","T1Trial","Outcome","845","left",1,"left","pie13.png",0,"f3.png","f7.png",48
"913","7",1,"L","T1Trial","Outcome","800","right",1,"right","pie0.png",0,"f0.png","f5.png",49
"914","7",1,"L","T1Trial","Outcome","660","left",1,"left","pie23.png",0,"f0.png","f0.png",50
"915","7",1,"L","T1Trial","Outcome","846","left",1,"left","pie0.png",0,"f0.png","f5.png",51
"916","7",1,"L","T1Trial","Outcome","1034","left",1,"left","pie13.png",0,"f3.png","f7.png",52
"917","7",1,"L","T1Trial","Outcome","874","right",1,"right","pie0.png",0,"f0.png","f5.png",53
"918","7",1,"L","T1Trial","Outcome","852","right",1,"right","pie0.png",0,"f0.png","f5.png",54
"919","7",1,"L","T1Trial","Outcome","792","left",1,"left","pie13.png",1,"f3.png","f4.png",55
"920","7",1,"L","T1Trial","Outcome","908","right",1,"right","pie0.png",0,"f0.png","f5.png",56
"921","7",1,"L","T1Trial","Outcome","711","left",1,"left","pie23.png",1,"f0.png","f0.png",57
"922","7",1,"L","T1Trial","Outcome","775","right",1,"right","pie23.png",1,"f0.png","f0.png",58
"923","7",1,"L","T1Trial","Outcome","812","left",1,"left","pie0.png",0,"f0.png","f5.png",59
"924","7",1,"L","T1Trial","Outcome","734","left",1,"left","pie23.png",1,"f0.png","f0.png",60
"925","7",1,"L","T1Trial","Outcome","766","right",1,"right","pie23.png",1,"f0.png","f0.png",61
"926","7",1,"L","T1Trial","Outcome","871","left",1,"left","pie0.png",0,"f0.png","f5.png",62
"927","7",1,"L","T1Trial","Outcome","837","left",1,"left","pie13.png",0,"f3.png","f7.png",63
"928","7",1,"L","T1Trial","Outcome","647","left",1,"left","pie0.png",0,"f0.png","f5.png",64
"929","7",1,"L","T1Trial","Outcome","727","right",1,"right","pie13.png",1,"f3.png","f4.png",65
"930","7",1,"L","T1Trial","Outcome","710","right",1,"right","pie23.png",1,"f0.png","f0.png",66
"931","7",1,"L","T1Trial","Outcome","675","right",1,"right","pie23.png",1,"f0.png","f0.png",67
"932","7",1,"L","T1Trial","Outcome","726","right",1,"right","pie13.png",0,"f3.png","f7.png",68
"933","7",1,"L","T1Trial","Outcome","609","left",1,"left","pie0.png",0,"f0.png","f5.png",69
"934","7",1,"L","T1Trial","Outcome","825","left",1,"left","pie23.png",1,"f0.png","f0.png",70
"935","7",1,"L","T1Trial","Outcome","817","left",1,"left","pie23.png",1,"f0.png","f0.png",71
"936","7",1,"L","T1Trial","Outcome","704","left",1,"left","pie0.png",0,"f0.png","f5.png",72
"937","7",1,"H","T1Trial","Outcome","733","right",1,"right","pie1.png",1,"f2.png","f6.png",73
"938","7",1,"H","T1Trial","Outcome","779","right",1,"right","pie1.png",1,"f2.png","f6.png",74
"939","7",1,"H","T1Trial","Outcome","765","left",1,"left","pie23.png",0,"f0.png","f0.png",75
"940","7",1,"H","T1Trial","Outcome","832","left",1,"left","pie23.png",0,"f0.png","f0.png",76
"941","7",1,"H","T1Trial","Outcome","953","right",1,"right","pie1.png",1,"f2.png","f6.png",77
"942","7",1,"H","T1Trial","Outcome","804","right",1,"right","pie13.png",0,"f1.png","f7.png",78
"943","7",1,"H","T1Trial","Outcome","772","left",1,"left","pie1.png",1,"f2.png","f6.png",79
"944","7",1,"H","T1Trial","Outcome","870","right",1,"right","pie1.png",1,"f2.png","f6.png",80
"945","7",1,"H","T1Trial","Outcome","815","right",1,"right","pie1.png",1,"f2.png","f6.png",81
"946","7",1,"H","T1Trial","Outcome","626","left",1,"left","pie13.png",0,"f1.png","f7.png",82
"947","7",1,"H","T1Trial","Outcome","744","left",1,"left","pie13.png",1,"f1.png","f4.png",83
"948","7",1,"H","T1Trial","Outcome","705","left",1,"left","pie13.png",1,"f1.png","f4.png",84
"949","7",1,"H","T1Trial","Outcome","735","right",1,"right","pie1.png",1,"f2.png","f6.png",85
"950","7",1,"H","T1Trial","Outcome","727","left",1,"left","pie1.png",1,"f2.png","f6.png",86
"951","7",1,"H","T1Trial","Outcome","637","right",1,"right","pie1.png",1,"f2.png","f6.png",87
"952","7",1,"H","T1Trial","Outcome","604","left",1,"left","pie13.png",1,"f1.png","f4.png",88
"953","7",1,"H","T1Trial","Outcome","720","left",1,"left","pie23.png",0,"f0.png","f0.png",89
"954","7",1,"H","T1Trial","Outcome","711","left",1,"left","pie1.png",1,"f2.png","f6.png",90
"955","7",1,"H","T1Trial","Outcome","829","right",1,"right","pie1.png",1,"f2.png","f6.png",91
"956","7",1,"H","T1Trial","Outcome","792","left",1,"left","pie13.png",1,"f1.png","f4.png",92
"957","7",1,"H","T1Trial","Outcome","642","left",1,"left","pie23.png",0,"f0.png","f0.png",93
"958","7",1,"H","T1Trial","Outcome","639","left",1,"left","pie23.png",0,"f0.png","f0.png",94
"959","7",1,"H","T1Trial","Outcome","814","right",1,"right","pie13.png",0,"f1.png","f7.png",95
"960","7",1,"H","T1Trial","Outcome","575","right",1,"right","pie23.png",1,"f0.png","f0.png",96
"961","7",1,"H","T1Trial","Outcome","669","left",1,"left","pie1.png",1,"f2.png","f6.png",97
"962","7",1,"H","T1Trial","Outcome","829","left",1,"left","pie1.png",1,"f2.png","f6.png",98
"963","7",1,"H","T1Trial","Outcome","600","right",1,"right","pie23.png",1,"f0.png","f0.png",99
"964","7",1,"H","T1Trial","Outcome","549","right",1,"right","pie1.png",1,"f2.png","f6.png",100
"965","7",1,"H","T1Trial","Outcome","502","left",1,"left","pie23.png",1,"f0.png","f0.png",101
"966","7",1,"H","T1Trial","Outcome","609","right",1,"right","pie23.png",1,"f0.png","f0.png",102
"967","7",1,"H","T1Trial","Outcome","786","right",1,"right","pie13.png",0,"f1.png","f7.png",103
"968","7",1,"H","T1Trial","Outcome","627","right",1,"right","pie1.png",1,"f2.png","f6.png",104
"969","7",1,"H","T1Trial","Outcome","683","left",1,"left","pie13.png",0,"f1.png","f7.png",105
"970","7",1,"H","T1Trial","Outcome","565","left",1,"left","pie23.png",0,"f0.png","f0.png",106
"971","7",1,"H","T1Trial","Outcome","832","right",1,"right","pie13.png",0,"f1.png","f7.png",107
"972","7",1,"H","T1Trial","Outcome","634","left",1,"left","pie23.png",1,"f0.png","f0.png",108
"973","7",1,"H","T1Trial","Outcome","708","left",1,"left","pie13.png",0,"f1.png","f7.png",109
"974","7",1,"H","T1Trial","Outcome","683","right",1,"right","pie1.png",1,"f2.png","f6.png",110
"975","7",1,"H","T1Trial","Outcome","704","right",1,"right","pie13.png",0,"f1.png","f7.png",111
"976","7",1,"H","T1Trial","Outcome","719","right",1,"right","pie13.png",0,"f1.png","f7.png",112
"977","7",1,"H","T1Trial","Outcome","644","right",1,"right","pie1.png",1,"f2.png","f6.png",113
"978","7",1,"H","T1Trial","Outcome","677","left",1,"left","pie23.png",1,"f0.png","f0.png",114
"979","7",1,"H","T1Trial","Outcome","956","left",1,"left","pie23.png",0,"f0.png","f0.png",115
"980","7",1,"H","T1Trial","Outcome","812","left",1,"left","pie13.png",0,"f1.png","f7.png",116
"981","7",1,"H","T1Trial","Outcome","854","left",1,"left","pie23.png",1,"f0.png","f0.png",117
"982","7",1,"H","T1Trial","Outcome","760","left",1,"left","pie13.png",0,"f1.png","f7.png",118
"983","7",1,"H","T1Trial","Outcome","828","left",1,"left","pie1.png",1,"f2.png","f6.png",119
"984","7",1,"H","T1Trial","Outcome","814","right",1,"right","pie13.png",0,"f1.png","f7.png",120
"985","7",1,"H","T1Trial","Outcome","631","right",1,"right","pie13.png",0,"f1.png","f7.png",121
"986","7",1,"H","T1Trial","Outcome","651","left",1,"left","pie23.png",1,"f0.png","f0.png",122
"987","7",1,"H","T1Trial","Outcome","762","left",1,"left","pie23.png",1,"f0.png","f0.png",123
"988","7",1,"H","T1Trial","Outcome","690","left",1,"left","pie1.png",1,"f2.png","f6.png",124
"989","7",1,"H","T1Trial","Outcome","686","left",1,"left","pie1.png",1,"f2.png","f6.png",125
"990","7",1,"H","T1Trial","Outcome","796","left",1,"left","pie23.png",1,"f0.png","f0.png",126
"991","7",1,"H","T1Trial","Outcome","861","left",1,"left","pie1.png",1,"f2.png","f6.png",127
"992","7",1,"H","T1Trial","Outcome","645","left",1,"left","pie13.png",1,"f1.png","f4.png",128
"993","7",1,"H","T1Trial","Outcome","581","right",1,"right","pie23.png",1,"f0.png","f0.png",129
"994","7",1,"H","T1Trial","Outcome","710","right",1,"right","pie13.png",0,"f1.png","f7.png",130
"995","7",1,"H","T1Trial","Outcome","710","left",1,"left","pie13.png",1,"f1.png","f4.png",131
"996","7",1,"H","T1Trial","Outcome","614","right",1,"right","pie1.png",1,"f2.png","f6.png",132
"997","7",1,"H","T1Trial","Outcome","678","right",1,"right","pie1.png",1,"f2.png","f6.png",133
"998","7",1,"H","T1Trial","Outcome","582","right",1,"right","pie23.png",1,"f0.png","f0.png",134
"999","7",1,"H","T1Trial","Outcome","853","left",1,"left","pie23.png",1,"f0.png","f0.png",135
"1000","7",1,"H","T1Trial","Outcome","991","left",1,"left","pie13.png",0,"f1.png","f7.png",136
"1001","7",1,"H","T1Trial","Outcome","625","left",1,"left","pie13.png",1,"f1.png","f4.png",137
"1002","7",1,"H","T1Trial","Outcome","564","right",1,"right","pie23.png",1,"f0.png","f0.png",138
"1003","7",1,"H","T1Trial","Outcome","852","left",1,"left","pie23.png",0,"f0.png","f0.png",139
"1004","7",1,"H","T1Trial","Outcome","610","right",1,"right","pie23.png",1,"f0.png","f0.png",140
"1005","7",1,"H","T1Trial","Outcome","799","right",1,"right","pie13.png",1,"f1.png","f4.png",141
"1006","7",1,"H","T1Trial","Outcome","661","right",1,"right","pie13.png",0,"f1.png","f7.png",142
"1007","7",1,"H","T1Trial","Outcome","523","left",1,"left","pie1.png",1,"f2.png","f6.png",143
"1008","7",1,"H","T1Trial","Outcome","846","right",1,"right","pie23.png",1,"f0.png","f0.png",144
"1009","8",1,"H","T1Trial","Outcome","403.5","left",1,"left","pie13.png",1,"f3.png","f7.png",1
"1010","8",1,"H","T1Trial","Outcome","407.9","left",1,"left","pie23.png",1,"f0.png","f0.png",2
"1011","8",1,"H","T1Trial","Outcome","592.5","right",1,"right","pie23.png",0,"f0.png","f0.png",3
"1012","8",1,"H","T1Trial","Outcome","418.1","right",1,"right","pie1.png",1,"f2.png","f5.png",4
"1013","8",1,"H","T1Trial","Outcome","729.2","left",1,"left","pie13.png",0,"f3.png","f4.png",5
"1014","8",1,"H","T1Trial","Outcome","349.7","right",1,"right","pie23.png",1,"f0.png","f0.png",6
"1015","8",1,"H","T1Trial","Outcome","403.7","right",1,"right","pie1.png",1,"f2.png","f5.png",7
"1016","8",1,"H","T1Trial","Outcome","368.9","left",1,"left","pie1.png",1,"f2.png","f5.png",8
"1017","8",1,"H","T1Trial","Outcome","549.3","left",1,"left","pie23.png",0,"f0.png","f0.png",9
"1018","8",1,"H","T1Trial","Outcome","432.9","left",1,"left","pie1.png",1,"f2.png","f5.png",10
"1019","8",1,"H","T1Trial","Outcome","379.5","right",1,"right","pie1.png",1,"f2.png","f5.png",11
"1020","8",1,"H","T1Trial","Outcome","385.2","left",1,"left","pie1.png",1,"f2.png","f5.png",12
"1021","8",1,"H","T1Trial","Outcome","349.6","right",1,"right","pie23.png",1,"f0.png","f0.png",13
"1022","8",1,"H","T1Trial","Outcome","391.2","right",1,"right","pie23.png",1,"f0.png","f0.png",14
"1023","8",1,"H","T1Trial","Outcome","583.9","left",1,"left","pie13.png",0,"f3.png","f4.png",15
"1024","8",1,"H","T1Trial","Outcome","605.9","left",1,"left","pie13.png",0,"f3.png","f4.png",16
"1025","8",1,"H","T1Trial","Outcome","431.9","left",1,"left","pie13.png",1,"f3.png","f7.png",17
"1026","8",1,"H","T1Trial","Outcome","392.3","left",1,"left","pie23.png",1,"f0.png","f0.png",18
"1027","8",1,"H","T1Trial","Outcome","551.6","right",1,"right","pie13.png",0,"f3.png","f4.png",19
"1028","8",1,"H","T1Trial","Outcome","397.4","right",1,"right","pie13.png",0,"f3.png","f4.png",20
"1029","8",1,"H","T1Trial","Outcome","333.2","left",1,"left","pie1.png",1,"f2.png","f5.png",21
"1030","8",1,"H","T1Trial","Outcome","573.6","left",1,"left","pie13.png",0,"f3.png","f4.png",22
"1031","8",1,"H","T1Trial","Outcome","501.3","right",1,"right","pie1.png",1,"f2.png","f5.png",23
"1032","8",1,"H","T1Trial","Outcome","426.7","left",1,"left","pie1.png",1,"f2.png","f5.png",24
"1033","8",1,"H","T1Trial","Outcome","490.1","right",1,"right","pie23.png",0,"f0.png","f0.png",25
"1034","8",1,"H","T1Trial","Outcome","425.6","left",1,"left","pie1.png",1,"f2.png","f5.png",26
"1035","8",1,"H","T1Trial","Outcome","553.4","left",1,"left","pie23.png",0,"f0.png","f0.png",27
"1036","8",1,"H","T1Trial","Outcome","389.6","left",1,"left","pie23.png",1,"f0.png","f0.png",28
"1037","8",1,"H","T1Trial","Outcome","527.2","right",1,"right","pie23.png",0,"f0.png","f0.png",29
"1038","8",1,"H","T1Trial","Outcome","370.5","right",1,"right","pie23.png",1,"f0.png","f0.png",30
"1039","8",1,"H","T1Trial","Outcome","533.2","right",1,"right","pie23.png",1,"f0.png","f0.png",31
"1040","8",1,"H","T1Trial","Outcome","395.7","right",1,"right","pie1.png",1,"f2.png","f5.png",32
"1041","8",1,"H","T1Trial","Outcome","470.2","right",1,"right","pie1.png",1,"f2.png","f5.png",33
"1042","8",1,"H","T1Trial","Outcome","440.9","right",1,"right","pie1.png",1,"f2.png","f5.png",34
